# WL(nm)    Flux(ergs/cm**2/s/nm) # coadded Eps Eridani in 0.1 res
0.500       1.05E+02
1.500       5.64E+03
2.500       7.00E+02
3.500       1.16E+03
4.500       1.72E+03
5.500       2.13E+03
6.500       2.02E+03
7.500       1.44E+03
8.500       1.31E+03
9.500       7.64E+02
10.500      3.13E+02
11.500      1.56E+02
12.500      8.12E+01
13.500      9.05E+01
14.500      9.90E+02
15.500      7.56E+02
16.500      1.57E+03
17.500      2.32E+04
18.500      1.33E+04
19.500      9.42E+03
20.500      9.05E+03
21.500      4.35E+03
22.500      4.74E+03
23.500      1.06E+03
24.500      2.20E+03
25.500      5.42E+03
26.500      1.86E+03
27.500      3.92E+03
28.500      3.96E+03
29.500      2.02E+03
30.500      2.89E+04
31.500      5.50E+03
32.500      7.37E+03
33.500      7.24E+03
34.500      3.21E+03
35.500      2.74E+03
36.500      3.72E+03
37.500      6.40E+02
38.500      2.74E+02
39.500      2.70E+02
40.500      4.52E+02
41.500      8.37E+02
42.500      2.22E+02
43.500      5.09E+02
44.500      2.03E+02
45.500      2.23E+02
46.500      8.04E+02
47.500      3.20E+02
48.500      5.34E+02
49.500      1.83E+03
50.500      7.77E+02
51.500      2.66E+02
52.500      4.54E+02
53.500      3.45E+02
54.500      2.24E+02
55.500      1.00E+03
56.500      3.04E+02
57.500      3.02E+02
58.500      1.71E+03
59.500      3.60E+02
60.500      1.44E+03
61.500      4.50E+02
62.500      1.95E+03
63.500      4.90E+02
64.500      1.13E+02
65.500      8.86E+01
66.500      7.90E+01
67.500      8.09E+01
68.500      2.79E+02
69.500      2.06E+02
70.500      5.42E+02
71.500      2.37E+02
72.500      1.77E+02
73.500      2.31E+02
74.500      2.85E+02
75.500      4.35E+02
76.500      1.10E+03
77.500      9.97E+02
78.500      1.41E+03
79.500      6.61E+02
80.500      6.79E+02
81.500      7.71E+02
82.500      1.14E+03
83.500      1.95E+03
84.500      1.42E+03
85.500      1.58E+03
86.500      1.67E+03
87.500      1.99E+03
88.500      2.27E+03
89.500      2.76E+03
90.500      3.26E+03
91.500      2.49E+03
92.500      8.89E+02
93.500      7.79E+02
94.500      5.55E+02
95.500      3.22E+02
96.500      3.35E+02
97.500      5.99E+03
98.500      6.82E+02
99.500      1.05E+03
100.500     4.26E+02
101.500     4.92E+02
102.500     4.49E+03
103.500     4.64E+03
104.500     6.80E+02
105.500     5.75E+02
106.500     5.48E+02
107.500     5.81E+02
108.500     9.75E+02
109.500     6.56E+02
110.500     7.00E+02
111.500     6.42E+02
112.500     6.99E+02
113.500     5.46E+02
114.500     3.69E+02
115.000     1.41E+04
115.100     3.98E+03
115.200     3.46E+03
115.300     2.13E+03
115.400     2.11E+03
115.500     2.19E+03
115.600     2.81E+03
115.700     2.54E+03
115.800     2.50E+03
115.900     1.88E+03
116.000     1.84E+03
116.100     1.52E+03
116.200     1.40E+03
116.300     1.74E+03
116.400     1.10E+03
116.500     1.32E+03
116.600     1.77E+03
116.700     1.85E+03
116.800     1.74E+03
116.900     1.26E+03
117.000     1.44E+03
117.100     1.31E+03
117.200     1.63E+03
117.300     1.34E+03
117.400     3.23E+03
117.500     2.40E+04
117.600     9.65E+03
117.700     1.19E+03
117.800     1.35E+03
117.900     1.04E+03
118.000     9.22E+02
118.100     8.83E+02
118.200     8.30E+02
118.300     8.15E+02
118.400     1.12E+03
118.500     1.08E+03
118.600     9.98E+02
118.700     9.31E+02
118.800     1.04E+03
118.900     1.50E+03
119.000     2.02E+03
119.100     9.30E+02
119.200     1.04E+03
119.300     1.86E+03
119.400     3.08E+03
119.500     1.22E+03
119.600     9.60E+02
119.700     1.57E+03
119.800     1.18E+03
119.900     1.87E+03
120.000     1.73E+03
120.100     1.54E+03
120.200     1.13E+03
120.300     1.71E+03
120.400     2.24E+03
120.500     2.27E+03
120.600     4.02E+04
120.700     2.23E+03
120.800     2.33E+03
120.900     3.72E+03
121.000     5.28E+03
121.100     7.34E+03
121.200     1.24E+04
121.300     2.71E+04
121.400     1.19E+05
121.500     8.58E+05
121.600     6.74E+05
121.700     4.69E+04
121.800     2.21E+04
121.900     7.38E+03
122.000     5.56E+03
122.100     4.63E+03
122.200     4.07E+03
122.300     2.94E+03
122.400     2.95E+03
122.500     2.41E+03
122.600     1.55E+03
122.700     1.42E+03
122.800     9.85E+02
122.900     1.07E+03
123.000     8.11E+02
123.100     7.66E+02
123.200     8.17E+02
123.300     8.11E+02
123.400     7.85E+02
123.500     8.17E+02
123.600     6.39E+02
123.700     5.29E+02
123.800     9.85E+03
123.900     1.74E+03
124.000     5.29E+02
124.100     6.11E+02
124.200     5.76E+03
124.300     1.23E+03
124.400     5.13E+02
124.500     5.80E+02
124.600     6.61E+02
124.700     8.06E+02
124.800     5.36E+02
124.900     5.65E+02
125.000     8.23E+02
125.100     5.52E+02
125.200     4.42E+02
125.300     1.31E+03
125.400     5.51E+02
125.500     5.28E+02
125.600     1.07E+03
125.700     5.91E+02
125.800     1.01E+03
125.900     1.44E+03
126.000     2.62E+03
126.100     9.15E+02
126.200     3.70E+02
126.300     3.82E+02
126.400     5.94E+03
126.500     2.04E+03
126.600     1.13E+03
126.700     5.74E+02
126.800     3.07E+02
126.900     2.65E+02
127.000     4.15E+02
127.100     3.04E+02
127.200     2.70E+02
127.300     3.59E+02
127.400     6.19E+02
127.500     8.57E+02
127.600     6.91E+02
127.700     1.37E+03
127.800     4.22E+02
127.900     8.57E+02
128.000     1.08E+03
128.100     3.15E+02
128.200     3.26E+02
128.300     2.86E+02
128.400     2.65E+02
128.500     2.62E+02
128.600     3.08E+02
128.700     3.44E+02
128.800     1.26E+03
128.900     3.73E+02
129.000     4.45E+02
129.100     3.06E+02
129.200     2.78E+02
129.300     3.18E+02
129.400     8.30E+02
129.500     4.95E+02
129.600     9.08E+02
129.700     3.09E+02
129.800     1.01E+03
129.900     1.60E+03
130.000     7.44E+02
130.100     8.70E+02
130.200     1.35E+04
130.300     1.09E+03
130.400     2.01E+04
130.500     3.45E+03
130.600     2.04E+04
130.700     3.37E+02
130.800     3.98E+02
130.900     2.95E+03
131.000     6.50E+02
131.100     1.18E+03
131.200     5.68E+02
131.300     6.79E+02
131.400     3.15E+02
131.500     4.88E+02
131.600     7.77E+02
131.700     3.50E+02
131.800     4.04E+02
131.900     7.64E+02
132.000     2.47E+02
132.100     2.80E+02
132.200     2.94E+02
132.300     6.18E+02
132.400     5.13E+02
132.500     3.07E+02
132.600     4.37E+02
132.700     3.54E+02
132.800     8.95E+02
132.900     1.71E+03
133.000     3.92E+02
133.100     2.96E+02
133.200     3.45E+02
133.300     5.23E+02
133.400     2.07E+04
133.500     5.18E+04
133.600     1.42E+03
133.700     4.28E+02
133.800     3.55E+02
133.900     3.39E+02
134.000     3.97E+02
134.100     4.01E+02
134.200     4.42E+02
134.300     3.70E+02
134.400     4.12E+02
134.500     3.41E+02
134.600     3.12E+02
134.700     4.94E+02
134.800     3.68E+02
134.900     6.76E+02
135.000     3.49E+02
135.100     2.40E+03
135.200     3.59E+02
135.300     3.56E+02
135.400     7.15E+02
135.500     3.07E+03
135.600     3.98E+02
135.700     7.37E+02
135.800     1.01E+03
135.900     7.65E+02
136.000     6.13E+02
136.100     7.41E+02
136.200     3.43E+02
136.300     4.37E+02
136.400     8.76E+02
136.500     3.43E+02
136.600     3.90E+02
136.700     3.46E+02
136.800     4.58E+02
136.900     4.05E+02
137.000     3.98E+02
137.100     1.52E+03
137.200     4.55E+02
137.300     3.79E+02
137.400     5.02E+02
137.500     3.84E+02
137.600     3.90E+02
137.700     4.82E+02
137.800     4.70E+02
137.900     4.76E+02
138.000     4.40E+02
138.100     4.06E+02
138.200     4.04E+02
138.300     4.31E+02
138.400     4.16E+02
138.500     4.48E+02
138.600     4.05E+02
138.700     5.06E+02
138.800     4.70E+02
138.900     4.27E+02
139.000     4.10E+02
139.100     5.06E+02
139.200     6.71E+02
139.300     2.32E+04
139.400     2.71E+03
139.500     3.87E+02
139.600     5.03E+02
139.700     4.74E+02
139.800     4.98E+02
139.900     9.09E+02
140.000     5.91E+02
140.100     2.45E+03
140.200     1.24E+04
140.300     1.88E+03
140.400     1.03E+03
140.500     6.79E+02
140.600     8.16E+02
140.700     8.98E+02
140.800     5.73E+02
140.900     5.90E+02
141.000     5.74E+02
141.100     5.49E+02
141.200     7.13E+02
141.300     6.30E+02
141.400     5.57E+02
141.500     6.50E+02
141.600     6.39E+02
141.700     6.97E+02
141.800     4.67E+02
141.900     5.19E+02
142.000     4.63E+02
142.100     4.91E+02
142.200     4.97E+02
142.300     5.24E+02
142.400     5.66E+02
142.500     1.35E+03
142.600     5.07E+02
142.700     5.37E+02
142.800     5.81E+02
142.900     5.75E+02
143.000     6.24E+02
143.100     8.66E+02
143.200     1.41E+03
143.300     1.09E+03
143.400     6.72E+02
143.500     7.15E+02
143.600     8.12E+02
143.700     7.44E+02
143.800     6.57E+02
143.900     5.99E+02
144.000     5.66E+02
144.100     6.15E+02
144.200     5.23E+02
144.300     6.44E+02
144.400     6.98E+02
144.500     8.46E+02
144.600     6.42E+02
144.700     6.47E+02
144.800     6.79E+02
144.900     6.35E+02
145.000     6.42E+02
145.100     5.60E+02
145.200     7.00E+02
145.300     6.60E+02
145.400     7.61E+02
145.500     7.36E+02
145.600     6.70E+02
145.700     6.99E+02
145.800     7.16E+02
145.900     1.09E+03
146.000     6.71E+02
146.100     8.36E+02
146.200     7.51E+02
146.300     1.91E+03
146.400     6.21E+02
146.500     8.34E+02
146.600     6.35E+02
146.700     1.50E+03
146.800     9.24E+02
146.900     7.36E+02
147.000     1.05E+03
147.100     6.69E+02
147.200     1.01E+03
147.300     2.53E+03
147.400     2.46E+03
147.500     6.89E+02
147.600     6.72E+02
147.700     7.92E+02
147.800     7.01E+02
147.900     7.40E+02
148.000     7.31E+02
148.100     2.61E+03
148.200     8.16E+02
148.300     1.44E+03
148.400     7.48E+02
148.500     1.23E+03
148.600     1.27E+03
148.700     1.28E+03
148.800     7.75E+02
148.900     7.65E+02
149.000     9.23E+02
149.100     8.57E+02
149.200     1.21E+03
149.300     9.34E+02
149.400     1.01E+03
149.500     7.78E+02
149.600     8.73E+02
149.700     8.65E+02
149.800     9.16E+02
149.900     8.78E+02
150.000     8.64E+02
150.100     9.45E+02
150.200     9.68E+02
150.300     8.66E+02
150.400     9.56E+02
150.500     9.59E+02
150.600     8.97E+02
150.700     9.83E+02
150.800     8.84E+02
150.900     1.02E+03
151.000     1.25E+03
151.100     1.45E+03
151.200     1.05E+03
151.300     1.07E+03
151.400     9.89E+02
151.500     9.57E+02
151.600     9.30E+02
151.700     1.02E+03
151.800     1.16E+03
151.900     1.03E+03
152.000     9.69E+02
152.100     9.80E+02
152.200     9.89E+02
152.300     9.68E+02
152.400     1.06E+03
152.500     1.03E+03
152.600     6.22E+03
152.700     1.11E+03
152.800     9.78E+02
152.900     1.18E+03
153.000     7.42E+02
153.100     9.08E+02
153.200     1.32E+03
153.300     7.51E+03
153.400     1.47E+03
153.500     8.81E+02
153.600     9.85E+02
153.700     1.73E+03
153.800     1.02E+03
153.900     6.78E+02
154.000     1.40E+03
154.100     1.59E+03
154.200     1.53E+03
154.300     8.82E+02
154.400     1.16E+03
154.500     1.63E+03
154.600     8.89E+02
154.700     2.42E+03
154.800     5.91E+04
154.900     1.19E+03
155.000     2.84E+04
155.100     6.15E+03
155.200     1.17E+03
155.300     1.21E+03
155.400     1.15E+03
155.500     9.74E+02
155.600     1.10E+03
155.700     5.75E+02
155.800     1.42E+03
155.900     1.75E+03
156.000     1.01E+04
156.100     9.80E+03
156.200     8.89E+02
156.300     1.44E+03
156.400     9.21E+02
156.500     9.05E+02
156.600     9.95E+02
156.700     1.11E+03
156.800     1.41E+03
156.900     1.29E+03
157.000     1.28E+03
157.100     1.92E+03
157.200     6.54E+02
157.300     1.61E+03
157.400     1.74E+03
157.500     1.23E+03
157.600     9.27E+02
157.700     8.23E+02
157.800     7.47E+02
157.900     4.32E+02
158.000     1.27E+03
158.100     8.71E+02
158.200     6.91E+02
158.300     8.16E+02
158.400     1.36E+03
158.500     1.05E+03
158.600     1.39E+03
158.700     9.19E+02
158.800     2.22E+03
158.900     7.59E+02
159.000     9.49E+02
159.100     7.22E+02
159.200     1.47E+03
159.300     5.32E+02
159.400     1.65E+03
159.500     1.69E+03
159.600     4.88E+02
159.700     9.33E+02
159.800     1.52E+03
159.900     8.47E+02
160.000     1.35E+03
160.100     1.42E+03
160.200     1.56E+03
160.300     2.03E+03
160.400     5.19E+02
160.500     9.31E+02
160.600     8.45E+02
160.700     1.14E+03
160.800     1.80E+03
160.900     6.64E+02
161.000     7.96E+02
161.100     1.26E+03
161.200     1.45E+03
161.300     1.62E+03
161.400     1.27E+03
161.500     7.50E+02
161.600     9.35E+02
161.700     8.05E+02
161.800     1.54E+03
161.900     1.01E+03
162.000     1.21E+03
162.100     2.28E+03
162.200     1.39E+03
162.300     1.71E+03
162.400     6.70E+02
162.500     1.90E+03
162.600     1.05E+03
162.700     9.47E+02
162.800     6.31E+02
162.900     2.42E+03
163.000     1.51E+03
163.100     1.41E+03
163.200     2.06E+03
163.300     1.28E+03
163.400     1.59E+03
163.500     1.40E+03
163.600     1.49E+03
163.700     1.44E+03
163.800     1.10E+03
163.900     1.41E+03
164.000     7.02E+04
164.100     1.54E+03
164.200     8.54E+02
164.300     1.91E+03
164.400     6.30E+02
164.500     8.29E+02
164.600     8.12E+02
164.700     1.29E+03
164.800     9.48E+02
164.900     1.68E+03
165.000     9.15E+02
165.100     9.62E+02
165.200     5.84E+02
165.300     2.06E+03
165.400     2.67E+03
165.500     1.26E+03
165.600     1.81E+04
165.700     2.44E+04
165.800     1.57E+04
165.900     2.87E+03
166.000     1.31E+03
166.100     9.88E+02
166.200     1.60E+03
166.300     1.60E+03
166.400     8.44E+02
166.500     8.57E+02
166.600     2.89E+03
166.700     7.71E+02
166.800     1.19E+03
166.900     1.12E+03
167.000     1.74E+04
167.100     2.16E+03
167.200     1.18E+03
167.300     1.51E+03
167.400     2.32E+03
167.500     1.43E+03
167.600     1.54E+03
167.700     9.53E+02
167.800     7.97E+02
167.900     1.27E+03
168.000     9.07E+02
168.100     1.47E+03
168.200     8.69E+02
168.300     1.23E+03
168.400     9.59E+02
168.500     1.20E+03
168.600     3.82E+03
168.700     1.04E+03
168.800     1.18E+03
168.900     1.11E+03
169.000     3.80E+02
169.100     1.82E+03
169.200     1.65E+03
169.300     1.64E+03
169.400     1.85E+03
169.500     1.43E+03
169.600     5.08E+03
169.700     8.76E+02
169.800     2.16E+03
169.900     1.18E+03
170.000     1.33E+03
170.100     1.49E+03
170.200     1.65E+03
170.300     1.82E+03
170.400     1.98E+03
170.500     2.15E+03
170.600     2.31E+03
170.700     2.48E+03
170.800     2.64E+03
170.900     2.80E+03
171.000     2.97E+03
171.100     3.13E+03
171.200     3.30E+03
171.300     3.46E+03
171.400     3.62E+03
171.500     3.79E+03
171.600     3.95E+03
171.700     4.12E+03
171.800     4.28E+03
171.900     4.44E+03
172.000     4.61E+03
172.100     4.77E+03
172.200     4.94E+03
172.300     5.10E+03
172.400     5.27E+03
172.500     5.43E+03
172.600     5.59E+03
172.700     5.76E+03
172.800     5.92E+03
172.900     6.09E+03
173.000     6.25E+03
173.100     4.29E+03
173.200     4.40E+03
173.300     5.70E+03
173.400     4.19E+03
173.500     3.46E+03
173.600     3.70E+03
173.700     3.50E+03
173.800     3.55E+03
173.900     3.33E+03
174.000     3.95E+03
174.100     2.94E+03
174.200     3.09E+03
174.300     3.57E+03
174.400     3.20E+03
174.500     4.15E+03
174.600     2.81E+03
174.700     3.08E+03
174.800     4.75E+03
174.900     4.23E+03
175.000     3.22E+03
175.100     5.51E+03
175.200     4.60E+03
175.300     4.47E+03
175.400     3.23E+03
175.500     3.72E+03
175.600     3.24E+03
175.700     3.25E+03
175.800     3.46E+03
175.900     3.10E+03
176.000     4.31E+03
176.100     4.94E+03
176.200     3.60E+03
176.300     3.98E+03
176.400     4.11E+03
176.500     4.99E+03
176.600     3.63E+03
176.700     3.11E+03
176.800     3.77E+03
176.900     3.27E+03
177.000     3.87E+03
177.100     3.43E+03
177.200     3.50E+03
177.300     3.93E+03
177.400     4.29E+03
177.500     3.52E+03
177.600     2.92E+03
177.700     3.80E+03
177.800     4.13E+03
177.900     3.82E+03
178.000     3.62E+03
178.100     3.48E+03
178.200     3.85E+03
178.300     3.40E+03
178.400     2.69E+03
178.500     3.43E+03
178.600     4.16E+03
178.700     2.99E+03
178.800     4.55E+03
178.900     3.69E+03
179.000     3.67E+03
179.100     2.88E+03
179.200     2.94E+03
179.300     4.15E+03
179.400     3.07E+03
179.500     3.26E+03
179.600     2.76E+03
179.700     3.38E+03
179.800     3.22E+03
179.900     2.88E+03
180.000     3.18E+03
180.100     2.53E+03
180.200     3.11E+03
180.300     2.94E+03
180.400     3.21E+03
180.500     3.69E+03
180.600     2.76E+03
180.700     1.04E+04
180.800     7.54E+04
180.900     4.41E+03
181.000     3.29E+03
181.100     4.16E+03
181.200     4.42E+03
181.300     3.76E+03
181.400     3.56E+03
181.500     3.92E+03
181.600     3.84E+04
181.700     1.24E+05
181.800     3.53E+03
181.900     3.10E+03
182.000     6.86E+03
182.100     3.75E+03
182.200     4.74E+03
182.300     3.29E+03
182.400     3.91E+03
182.500     4.30E+03
182.600     6.98E+03
182.700     4.12E+03
182.800     3.53E+03
182.900     3.03E+03
183.000     2.95E+03
183.100     4.37E+03
183.200     3.68E+03
183.300     3.61E+03
183.400     3.19E+03
183.500     3.87E+03
183.600     3.62E+03
183.700     2.90E+03
183.800     3.11E+03
183.900     3.22E+03
184.000     3.39E+03
184.100     4.57E+03
184.200     3.96E+03
184.300     3.16E+03
184.400     3.62E+03
184.500     3.72E+03
184.600     4.15E+03
184.700     3.33E+03
184.800     4.21E+03
184.900     3.79E+03
185.000     4.29E+03
185.100     4.62E+03
185.200     3.60E+03
185.300     3.26E+03
185.400     7.99E+03
185.500     4.41E+03
185.600     2.98E+03
185.700     2.68E+03
185.800     3.69E+03
185.900     5.26E+03
186.000     4.31E+03
186.100     3.22E+03
186.200     5.90E+03
186.300     3.81E+03
186.400     3.77E+03
186.500     3.46E+03
186.600     4.41E+03
186.700     3.75E+03
186.800     4.53E+03
186.900     3.92E+03
187.000     3.29E+03
187.100     3.51E+03
187.200     3.30E+03
187.300     5.38E+03
187.400     4.45E+03
187.500     7.35E+03
187.600     4.07E+03
187.700     4.03E+03
187.800     3.36E+03
187.900     3.62E+03
188.000     3.71E+03
188.100     4.24E+03
188.200     4.17E+03
188.300     3.95E+03
188.400     4.65E+03
188.500     3.55E+03
188.600     3.73E+03
188.700     3.87E+03
188.800     4.91E+03
188.900     4.08E+03
189.000     4.24E+03
189.100     4.62E+03
189.200     1.65E+04
189.300     4.80E+03
189.400     4.36E+03
189.500     5.01E+03
189.600     4.49E+03
189.700     4.31E+03
189.800     4.13E+03
189.900     3.79E+03
190.000     1.08E+04
190.100     1.05E+04
190.200     4.40E+03
190.300     5.34E+03
190.400     5.23E+03
190.500     5.43E+03
190.600     4.10E+03
190.700     4.54E+03
190.800     5.31E+03
190.900     5.50E+03
191.000     4.06E+03
191.100     4.97E+03
191.200     4.25E+03
191.300     4.02E+03
191.400     7.39E+03
191.500     7.10E+03
191.600     4.93E+03
191.700     4.95E+03
191.800     4.17E+03
191.900     4.73E+03
192.000     5.05E+03
192.100     5.68E+03
192.200     5.28E+03
192.300     7.82E+03
192.400     4.66E+03
192.500     4.46E+03
192.600     9.55E+03
192.700     5.20E+03
192.800     4.13E+03
192.900     4.79E+03
193.000     7.39E+03
193.100     8.66E+03
193.200     4.21E+03
193.300     3.80E+03
193.400     4.00E+03
193.500     3.60E+03
193.600     5.89E+03
193.700     3.36E+03
193.800     4.98E+03
193.900     4.91E+03
194.000     5.26E+03
194.100     5.36E+03
194.200     6.40E+03
194.300     6.27E+03
194.400     6.62E+03
194.500     5.60E+03
194.600     5.08E+03
194.700     5.86E+03
194.800     6.04E+03
194.900     5.73E+03
195.000     5.66E+03
195.100     5.39E+03
195.200     4.68E+03
195.300     5.50E+03
195.400     6.19E+03
195.500     5.99E+03
195.600     6.42E+03
195.700     5.91E+03
195.800     5.51E+03
195.900     6.45E+03
196.000     5.91E+03
196.100     5.74E+03
196.200     5.93E+03
196.300     5.84E+03
196.400     5.55E+03
196.500     6.38E+03
196.600     6.84E+03
196.700     6.78E+03
196.800     7.92E+03
196.900     7.49E+03
197.000     6.83E+03
197.100     6.74E+03
197.200     6.34E+03
197.300     6.28E+03
197.400     6.35E+03
197.500     6.57E+03
197.600     6.45E+03
197.700     7.34E+03
197.800     7.05E+03
197.900     7.72E+03
198.000     8.16E+03
198.100     6.76E+03
198.200     7.19E+03
198.300     7.87E+03
198.400     7.33E+03
198.500     7.63E+03
198.600     7.89E+03
198.700     6.84E+03
198.800     7.08E+03
198.900     8.56E+03
199.000     7.34E+03
199.100     6.92E+03
199.200     7.52E+03
199.300     2.06E+04
199.400     7.03E+03
199.500     6.94E+03
199.600     7.61E+03
199.700     6.98E+03
199.800     7.37E+03
199.900     7.84E+03
200.000     8.20E+03
200.100     8.27E+03
200.200     8.20E+03
200.300     7.44E+03
200.400     7.89E+03
200.500     8.67E+03
200.600     7.33E+03
200.700     7.64E+03
200.800     1.15E+04
200.900     7.21E+03
201.000     8.48E+03
201.100     1.11E+04
201.200     8.23E+03
201.300     8.90E+03
201.400     9.06E+03
201.500     7.62E+03
201.600     1.17E+04
201.700     9.21E+03
201.800     9.28E+03
201.900     1.01E+04
202.000     8.70E+03
202.100     9.81E+03
202.200     8.18E+03
202.300     8.67E+03
202.400     8.66E+03
202.500     8.43E+03
202.600     9.17E+03
202.700     8.90E+03
202.800     9.55E+03
202.900     9.47E+03
203.000     9.13E+03
203.100     1.02E+04
203.200     9.01E+03
203.300     1.02E+04
203.400     8.33E+03
203.500     8.22E+03
203.600     1.01E+04
203.700     1.02E+04
203.800     9.95E+03
203.900     8.60E+03
204.000     1.12E+04
204.100     1.23E+04
204.200     9.94E+03
204.300     9.88E+03
204.400     1.04E+04
204.500     9.45E+03
204.600     1.04E+04
204.700     1.01E+04
204.800     9.52E+03
204.900     1.01E+04
205.000     9.82E+03
205.100     1.15E+04
205.200     9.90E+03
205.300     1.07E+04
205.400     1.07E+04
205.500     1.10E+04
205.600     1.36E+04
205.700     1.10E+04
205.800     1.16E+04
205.900     1.08E+04
206.000     9.97E+03
206.100     1.01E+04
206.200     1.27E+04
206.300     1.05E+04
206.400     1.20E+04
206.500     1.03E+04
206.600     1.29E+04
206.700     1.06E+04
206.800     1.17E+04
206.900     9.98E+03
207.000     1.11E+04
207.100     1.15E+04
207.200     1.23E+04
207.300     1.17E+04
207.400     1.19E+04
207.500     1.16E+04
207.600     1.20E+04
207.700     1.18E+04
207.800     1.16E+04
207.900     1.30E+04
208.000     1.34E+04
208.100     1.33E+04
208.200     1.26E+04
208.300     1.22E+04
208.400     1.42E+04
208.500     1.48E+04
208.600     1.51E+04
208.700     1.63E+04
208.800     1.63E+04
208.900     1.47E+04
209.000     1.57E+04
209.100     1.68E+04
209.200     1.60E+04
209.300     1.98E+04
209.400     1.49E+04
209.500     1.96E+04
209.600     1.91E+04
209.700     1.88E+04
209.800     2.09E+04
209.900     1.87E+04
210.000     1.59E+04
210.100     1.91E+04
210.200     2.34E+04
210.300     1.56E+04
210.400     1.67E+04
210.500     2.22E+04
210.600     2.08E+04
210.700     1.82E+04
210.800     2.19E+04
210.900     1.51E+04
211.000     1.65E+04
211.100     2.18E+04
211.200     2.42E+04
211.300     2.18E+04
211.400     2.13E+04
211.500     1.60E+04
211.600     2.34E+04
211.700     2.41E+04
211.800     2.48E+04
211.900     2.11E+04
212.000     2.72E+04
212.100     2.51E+04
212.200     2.06E+04
212.300     3.05E+04
212.400     1.72E+04
212.500     1.95E+04
212.600     2.11E+04
212.700     2.16E+04
212.800     2.23E+04
212.900     2.43E+04
213.000     2.31E+04
213.100     2.10E+04
213.200     2.46E+04
213.300     2.34E+04
213.400     2.59E+04
213.500     2.27E+04
213.600     2.33E+04
213.700     2.60E+04
213.800     2.64E+04
213.900     2.09E+04
214.000     2.37E+04
214.100     2.75E+04
214.200     2.41E+04
214.300     2.73E+04
214.400     2.50E+04
214.500     2.44E+04
214.600     2.89E+04
214.700     2.26E+04
214.800     2.39E+04
214.900     2.47E+04
215.000     2.80E+04
215.100     1.88E+04
215.200     2.32E+04
215.300     2.37E+04
215.400     3.22E+04
215.500     2.23E+04
215.600     2.45E+04
215.700     2.31E+04
215.800     2.05E+04
215.900     1.84E+04
216.000     2.23E+04
216.100     2.95E+04
216.200     2.93E+04
216.300     2.46E+04
216.400     2.43E+04
216.500     2.79E+04
216.600     2.29E+04
216.700     1.47E+04
216.800     2.42E+04
216.900     2.80E+04
217.000     2.41E+04
217.100     2.86E+04
217.200     2.40E+04
217.300     2.62E+04
217.400     2.45E+04
217.500     2.86E+04
217.600     3.11E+04
217.700     2.59E+04
217.800     1.88E+04
217.900     2.24E+04
218.000     3.06E+04
218.100     2.90E+04
218.200     2.99E+04
218.300     2.97E+04
218.400     2.40E+04
218.500     2.80E+04
218.600     3.12E+04
218.700     1.75E+04
218.800     2.98E+04
218.900     3.05E+04
219.000     2.96E+04
219.100     2.96E+04
219.200     2.25E+04
219.300     3.59E+04
219.400     3.46E+04
219.500     3.26E+04
219.600     2.62E+04
219.700     3.34E+04
219.800     3.35E+04
219.900     3.23E+04
220.000     2.87E+04
220.100     1.99E+04
220.200     3.24E+04
220.300     4.08E+04
220.400     3.79E+04
220.500     3.25E+04
220.600     4.05E+04
220.700     3.49E+04
220.800     3.26E+04
220.900     3.12E+04
221.000     3.27E+04
221.100     2.87E+04
221.200     2.92E+04
221.300     4.01E+04
221.400     4.42E+04
221.500     4.19E+04
221.600     3.01E+04
221.700     3.38E+04
221.800     2.86E+04
221.900     3.38E+04
222.000     3.62E+04
222.100     3.95E+04
222.200     3.50E+04
222.300     4.05E+04
222.400     4.24E+04
222.500     4.12E+04
222.600     4.40E+04
222.700     4.02E+04
222.800     3.84E+04
222.900     4.43E+04
223.000     3.88E+04
223.100     3.56E+04
223.200     4.38E+04
223.300     5.73E+04
223.400     5.74E+04
223.500     5.43E+04
223.600     5.76E+04
223.700     4.85E+04
223.800     4.31E+04
223.900     3.75E+04
224.000     5.04E+04
224.100     4.98E+04
224.200     4.19E+04
224.300     4.48E+04
224.400     4.56E+04
224.500     4.75E+04
224.600     5.04E+04
224.700     5.09E+04
224.800     5.68E+04
224.900     5.35E+04
225.000     7.18E+04
225.100     6.96E+04
225.200     6.06E+04
225.300     7.07E+04
225.400     5.66E+04
225.500     6.11E+04
225.600     5.67E+04
225.700     4.04E+04
225.800     3.74E+04
225.900     4.38E+04
226.000     6.49E+04
226.100     6.46E+04
226.200     3.97E+04
226.300     5.42E+04
226.400     3.90E+04
226.500     3.59E+04
226.600     5.43E+04
226.700     3.96E+04
226.800     6.02E+04
226.900     5.62E+04
227.000     4.04E+04
227.100     3.93E+04
227.200     3.84E+04
227.300     4.57E+04
227.400     4.01E+04
227.500     4.85E+04
227.600     4.19E+04
227.700     4.99E+04
227.800     4.63E+04
227.900     5.06E+04
228.000     8.46E+04
228.100     5.18E+04
228.200     6.00E+04
228.300     5.65E+04
228.400     4.47E+04
228.500     5.48E+04
228.600     6.44E+04
228.700     4.71E+04
228.800     4.10E+04
228.900     5.47E+04
229.000     4.92E+04
229.100     4.48E+04
229.200     5.80E+04
229.300     5.79E+04
229.400     6.02E+04
229.500     5.60E+04
229.600     6.76E+04
229.700     6.00E+04
229.800     4.63E+04
229.900     4.66E+04
230.000     4.03E+04
230.100     2.91E+04
230.200     4.45E+04
230.300     4.98E+04
230.400     5.05E+04
230.500     5.39E+04
230.600     6.56E+04
230.700     6.71E+04
230.800     6.04E+04
230.900     5.70E+04
231.000     5.06E+04
231.100     4.12E+04
231.200     4.86E+04
231.300     4.06E+04
231.400     3.91E+04
231.500     6.36E+04
231.600     7.86E+04
231.700     6.49E+04
231.800     6.31E+04
231.900     6.84E+04
232.000     4.55E+04
232.100     4.98E+04
232.200     4.36E+04
232.300     7.46E+04
232.400     8.12E+04
232.500     6.69E+04
232.600     5.04E+04
232.700     5.78E+04
232.800     6.97E+04
232.900     4.88E+04
233.000     6.90E+04
233.100     8.21E+04
233.200     9.67E+04
233.300     1.02E+05
233.400     7.72E+04
233.500     1.30E+05
233.600     8.01E+04
233.700     7.63E+04
233.800     8.59E+04
233.900     5.98E+04
234.000     6.79E+04
234.100     7.79E+04
234.200     9.03E+04
234.300     7.22E+04
234.400     1.23E+05
234.500     9.52E+04
234.600     5.06E+04
234.700     5.18E+04
234.800     7.34E+04
234.900     1.03E+05
235.000     7.38E+04
235.100     9.23E+04
235.200     7.17E+04
235.300     7.95E+04
235.400     7.35E+04
235.500     8.05E+04
235.600     7.52E+04
235.700     8.06E+04
235.800     8.49E+04
235.900     9.64E+04
236.000     2.26E+05
236.100     2.26E+05
236.200     2.27E+05
236.300     2.27E+05
236.400     2.27E+05
236.500     2.28E+05
236.600     2.28E+05
236.700     2.28E+05
236.800     2.29E+05
236.900     2.29E+05
237.000     2.30E+05
237.100     2.30E+05
237.200     2.30E+05
237.300     2.31E+05
237.400     2.31E+05
237.500     2.31E+05
237.600     2.32E+05
237.700     2.32E+05
237.800     2.32E+05
237.900     2.33E+05
238.000     2.33E+05
238.100     2.33E+05
238.200     2.34E+05
238.300     2.34E+05
238.400     2.34E+05
238.500     2.35E+05
238.600     2.35E+05
238.700     2.36E+05
238.800     2.36E+05
238.900     2.36E+05
239.000     2.37E+05
239.100     2.37E+05
239.200     2.37E+05
239.300     2.38E+05
239.400     2.38E+05
239.500     2.38E+05
239.600     2.39E+05
239.700     2.39E+05
239.800     2.39E+05
239.900     2.40E+05
240.000     2.40E+05
240.100     2.41E+05
240.200     2.41E+05
240.300     2.41E+05
240.400     2.42E+05
240.500     2.42E+05
240.600     2.42E+05
240.700     2.43E+05
240.800     2.43E+05
240.900     2.43E+05
241.000     2.44E+05
241.100     2.44E+05
241.200     2.44E+05
241.300     2.45E+05
241.400     2.45E+05
241.500     2.45E+05
241.600     2.46E+05
241.700     2.46E+05
241.800     2.47E+05
241.900     2.47E+05
242.000     2.47E+05
242.100     2.48E+05
242.200     2.48E+05
242.300     2.48E+05
242.400     2.49E+05
242.500     2.49E+05
242.600     2.49E+05
242.700     2.50E+05
242.800     2.50E+05
242.900     2.50E+05
243.000     2.51E+05
243.100     2.51E+05
243.200     2.51E+05
243.300     2.52E+05
243.400     2.52E+05
243.500     2.53E+05
243.600     2.53E+05
243.700     2.53E+05
243.800     2.54E+05
243.900     2.54E+05
244.000     2.54E+05
244.100     2.55E+05
244.200     2.55E+05
244.300     2.55E+05
244.400     2.56E+05
244.500     2.56E+05
244.600     2.56E+05
244.700     2.57E+05
244.800     2.57E+05
244.900     2.57E+05
245.000     2.58E+05
245.100     2.58E+05
245.200     2.59E+05
245.300     2.59E+05
245.400     2.59E+05
245.500     2.60E+05
245.600     2.60E+05
245.700     2.60E+05
245.800     2.61E+05
245.900     2.61E+05
246.000     2.61E+05
246.100     2.62E+05
246.200     2.62E+05
246.300     2.62E+05
246.400     2.63E+05
246.500     2.63E+05
246.600     2.63E+05
246.700     2.64E+05
246.800     2.64E+05
246.900     2.65E+05
247.000     2.65E+05
247.100     2.65E+05
247.200     2.66E+05
247.300     2.66E+05
247.400     2.66E+05
247.500     2.67E+05
247.600     2.67E+05
247.700     2.67E+05
247.800     2.68E+05
247.900     2.68E+05
248.000     2.68E+05
248.100     2.69E+05
248.200     2.69E+05
248.300     2.69E+05
248.400     2.70E+05
248.500     2.70E+05
248.600     2.71E+05
248.700     2.71E+05
248.800     2.71E+05
248.900     2.72E+05
249.000     2.72E+05
249.100     2.72E+05
249.200     2.73E+05
249.300     2.73E+05
249.400     2.73E+05
249.500     2.74E+05
249.600     2.74E+05
249.700     2.74E+05
249.800     2.75E+05
249.900     2.75E+05
250.000     2.75E+05
250.100     2.76E+05
250.200     2.76E+05
250.300     2.77E+05
250.400     2.77E+05
250.500     2.77E+05
250.600     2.78E+05
250.700     2.78E+05
250.800     2.78E+05
250.900     2.79E+05
251.000     2.79E+05
251.100     2.79E+05
251.200     2.80E+05
251.300     2.80E+05
251.400     2.80E+05
251.500     2.81E+05
251.600     2.81E+05
251.700     2.81E+05
251.800     2.82E+05
251.900     2.82E+05
252.000     2.83E+05
252.100     2.83E+05
252.200     2.83E+05
252.300     2.84E+05
252.400     2.84E+05
252.500     2.84E+05
252.600     2.85E+05
252.700     2.85E+05
252.800     2.85E+05
252.900     2.86E+05
253.000     2.86E+05
253.100     2.86E+05
253.200     2.87E+05
253.300     2.87E+05
253.400     2.88E+05
253.500     2.88E+05
253.600     2.88E+05
253.700     2.89E+05
253.800     2.89E+05
253.900     2.89E+05
254.000     2.90E+05
254.100     2.90E+05
254.200     2.90E+05
254.300     2.91E+05
254.400     2.91E+05
254.500     2.91E+05
254.600     2.92E+05
254.700     2.92E+05
254.800     2.92E+05
254.900     2.93E+05
255.000     2.93E+05
255.100     2.94E+05
255.200     2.94E+05
255.300     2.94E+05
255.400     2.95E+05
255.500     2.95E+05
255.600     2.95E+05
255.700     2.96E+05
255.800     2.96E+05
255.900     2.96E+05
256.000     2.97E+05
256.100     2.97E+05
256.200     2.97E+05
256.300     2.98E+05
256.400     2.98E+05
256.500     2.98E+05
256.600     2.99E+05
256.700     2.99E+05
256.800     3.00E+05
256.900     3.00E+05
257.000     3.00E+05
257.100     3.01E+05
257.200     3.01E+05
257.300     3.01E+05
257.400     3.02E+05
257.500     3.02E+05
257.600     1.37E+05
257.700     1.72E+05
257.800     1.98E+05
257.900     2.50E+05
258.000     2.06E+05
258.100     2.29E+05
258.200     3.20E+05
258.300     1.94E+05
258.400     2.80E+05
258.500     1.67E+05
258.600     2.68E+05
258.700     2.06E+05
258.800     2.06E+05
258.900     2.18E+05
259.000     2.99E+05
259.100     2.32E+05
259.200     1.99E+05
259.300     2.36E+05
259.400     1.60E+05
259.500     2.23E+05
259.600     2.33E+05
259.700     2.38E+05
259.800     1.99E+05
259.900     2.45E+05
260.000     3.28E+05
260.100     2.00E+05
260.200     2.72E+05
260.300     2.63E+05
260.400     2.26E+05
260.500     2.53E+05
260.600     1.95E+05
260.700     1.91E+05
260.800     2.48E+05
260.900     2.18E+05
261.000     2.50E+05
261.100     2.26E+05
261.200     3.00E+05
261.300     1.84E+05
261.400     2.33E+05
261.500     2.16E+05
261.600     2.57E+05
261.700     2.77E+05
261.800     2.83E+05
261.900     2.23E+05
262.000     3.05E+05
262.100     3.52E+05
262.200     2.95E+05
262.300     2.97E+05
262.400     2.35E+05
262.500     3.28E+05
262.600     4.24E+05
262.700     2.72E+05
262.800     2.60E+05
262.900     2.96E+05
263.000     2.62E+05
263.100     2.78E+05
263.200     3.59E+05
263.300     1.82E+05
263.400     3.18E+05
263.500     3.63E+05
263.600     2.88E+05
263.700     3.67E+05
263.800     5.39E+05
263.900     5.61E+05
264.000     4.50E+05
264.100     3.85E+05
264.200     3.80E+05
264.300     6.16E+05
264.400     5.21E+05
264.500     4.08E+05
264.600     3.91E+05
264.700     3.73E+05
264.800     3.49E+05
264.900     2.74E+05
265.000     3.64E+05
265.100     4.01E+05
265.200     3.48E+05
265.300     3.82E+05
265.400     4.66E+05
265.500     5.53E+05
265.600     5.52E+05
265.700     4.43E+05
265.800     5.08E+05
265.900     4.25E+05
266.000     5.34E+05
266.100     4.30E+05
266.200     3.09E+05
266.300     5.29E+05
266.400     3.34E+05
266.500     5.26E+05
266.600     5.52E+05
266.700     2.96E+05
266.800     5.37E+05
266.900     4.77E+05
267.000     3.72E+05
267.100     4.69E+05
267.200     5.05E+05
267.300     3.23E+05
267.400     4.09E+05
267.500     5.86E+05
267.600     5.01E+05
267.700     5.39E+05
267.800     4.30E+05
267.900     3.45E+05
268.000     3.83E+05
268.100     3.83E+05
268.200     4.72E+05
268.300     4.63E+05
268.400     4.25E+05
268.500     4.10E+05
268.600     4.99E+05
268.700     5.04E+05
268.800     4.02E+05
268.900     4.74E+05
269.000     2.76E+05
269.100     3.76E+05
269.200     4.72E+05
269.300     4.89E+05
269.400     5.56E+05
269.500     4.15E+05
269.600     2.44E+05
269.700     3.81E+05
269.800     4.91E+05
269.900     3.79E+05
270.000     5.18E+05
270.100     6.31E+05
270.200     4.45E+05
270.300     5.35E+05
270.400     4.58E+05
270.500     6.46E+05
270.600     4.88E+05
270.700     3.21E+05
270.800     5.03E+05
270.900     4.34E+05
271.000     5.44E+05
271.100     5.12E+05
271.200     3.95E+05
271.300     6.15E+05
271.400     5.29E+05
271.500     3.56E+05
271.600     3.81E+05
271.700     4.37E+05
271.800     3.19E+05
271.900     1.76E+05
272.000     1.84E+05
272.100     1.59E+05
272.200     2.52E+05
272.300     3.20E+05
272.400     2.06E+05
272.500     3.18E+05
272.600     3.72E+05
272.700     3.58E+05
272.800     3.96E+05
272.900     4.49E+05
273.000     7.18E+05
273.100     4.46E+05
273.200     4.64E+05
273.300     5.44E+05
273.400     2.29E+05
273.500     3.49E+05
273.600     3.18E+05
273.700     3.01E+05
273.800     2.16E+05
273.900     4.43E+05
274.000     3.56E+05
274.100     4.17E+05
274.200     3.14E+05
274.300     1.86E+05
274.400     2.50E+05
274.500     2.89E+05
274.600     4.51E+05
274.700     3.23E+05
274.800     4.32E+05
274.900     4.02E+05
275.000     2.75E+05
275.100     2.14E+05
275.200     4.32E+05
275.300     5.98E+05
275.400     3.47E+05
275.500     4.07E+05
275.600     3.78E+05
275.700     2.73E+05
275.800     3.46E+05
275.900     7.16E+05
276.000     6.01E+05
276.100     6.20E+05
276.200     4.69E+05
276.300     3.83E+05
276.400     5.69E+05
276.500     5.89E+05
276.600     7.48E+05
276.700     4.46E+05
276.800     5.20E+05
276.900     4.98E+05
277.000     5.03E+05
277.100     6.77E+05
277.200     6.03E+05
277.300     4.29E+05
277.400     6.62E+05
277.500     6.14E+05
277.600     6.50E+05
277.700     4.04E+05
277.800     6.31E+05
277.900     3.36E+05
278.000     3.73E+05
278.100     4.22E+05
278.200     3.76E+05
278.300     4.54E+05
278.400     4.13E+05
278.500     5.52E+05
278.600     5.38E+05
278.700     5.08E+05
278.800     4.13E+05
278.900     3.80E+05
279.000     3.65E+05
279.100     4.08E+05
279.200     3.34E+05
279.300     2.89E+05
279.400     2.43E+05
279.500     1.59E+05
279.600     3.50E+06
279.700     1.92E+05
279.800     2.44E+05
279.900     2.30E+05
280.000     2.96E+05
280.100     2.63E+05
280.200     2.06E+05
280.300     2.74E+06
280.400     2.43E+05
280.500     2.53E+05
280.600     3.15E+05
280.700     3.55E+05
280.800     3.95E+05
280.900     4.68E+05
281.000     5.70E+05
281.100     5.31E+05
281.200     4.58E+05
281.300     4.71E+05
281.400     3.88E+05
281.500     7.14E+05
281.600     6.70E+05
281.700     6.55E+05
281.800     5.19E+05
281.900     6.65E+05
282.000     6.42E+05
282.100     6.55E+05
282.200     6.13E+05
282.300     5.40E+05
282.400     6.65E+05
282.500     7.26E+05
282.600     4.55E+05
282.700     6.41E+05
282.800     5.93E+05
282.900     8.88E+05
283.000     1.59E+06
283.500     1.49E+06
284.000     1.48E+06
284.500     1.16E+06
285.000     5.48E+05
285.500     6.37E+05
286.000     1.39E+06
286.500     1.66E+06
287.000     1.75E+06
287.500     1.75E+06
288.000     1.16E+06
288.500     1.66E+06
289.000     1.94E+06
289.500     2.27E+06
290.000     2.86E+06
290.500     2.99E+06
291.000     2.82E+06
291.500     2.78E+06
292.000     2.65E+06
292.500     2.30E+06
293.000     2.62E+06
293.500     2.66E+06
294.000     2.33E+06
294.500     2.51E+06
295.000     2.39E+06
295.500     2.69E+06
296.000     2.87E+06
296.500     2.28E+06
297.000     1.96E+06
297.500     2.76E+06
298.000     2.58E+06
298.500     1.75E+06
299.000     2.67E+06
299.500     2.41E+06
300.000     1.93E+06
300.500     2.03E+06
301.000     2.28E+06
301.500     2.45E+06
302.000     1.73E+06
302.500     2.51E+06
303.000     3.13E+06
303.500     3.18E+06
304.000     2.67E+06
304.500     3.00E+06
305.000     3.11E+06
305.500     2.83E+06
306.000     2.51E+06
306.500     2.71E+06
307.000     2.98E+06
307.500     3.01E+06
308.000     3.04E+06
308.500     3.14E+06
309.000     2.60E+06
309.500     2.37E+06
310.000     2.15E+06
310.500     3.30E+06
311.000     3.81E+06
311.500     3.53E+06
312.000     2.97E+06
312.500     3.22E+06
313.000     3.29E+06
313.500     3.35E+06
314.000     3.67E+06
314.500     2.74E+06
315.000     3.48E+06
315.500     3.14E+06
316.000     2.40E+06
316.500     3.06E+06
317.000     3.80E+06
317.500     4.07E+06
318.000     2.93E+06
318.500     3.15E+06
319.000     3.48E+06
319.500     3.16E+06
320.000     3.87E+06
320.500     4.20E+06
321.000     3.31E+06
321.500     3.12E+06
322.000     3.77E+06
322.500     3.24E+06
323.000     2.96E+06
323.500     3.16E+06
324.000     3.61E+06
324.500     3.82E+06
325.000     3.62E+06
325.500     4.35E+06
326.000     4.86E+06
326.500     4.61E+06
327.000     4.66E+06
327.500     4.60E+06
328.000     4.41E+06
328.500     4.22E+06
329.000     4.74E+06
329.500     5.27E+06
330.000     5.37E+06
330.500     4.50E+06
331.000     4.65E+06
331.500     4.54E+06
332.000     4.65E+06
332.500     4.50E+06
333.000     4.53E+06
333.500     4.24E+06
334.000     4.35E+06
334.500     4.81E+06
335.000     4.41E+06
335.500     4.96E+06
336.000     3.42E+06
336.500     4.18E+06
337.000     3.48E+06
337.500     4.34E+06
338.000     4.10E+06
338.500     4.58E+06
339.000     4.54E+06
339.500     4.34E+06
340.000     5.24E+06
340.500     4.70E+06
341.000     4.46E+06
341.500     4.11E+06
342.000     4.90E+06
342.500     4.58E+06
343.000     5.01E+06
343.500     4.70E+06
344.000     3.54E+06
344.500     3.48E+06
345.000     4.62E+06
345.500     4.71E+06
346.000     4.00E+06
346.500     4.52E+06
347.000     4.83E+06
347.500     3.89E+06
348.000     4.44E+06
348.500     4.44E+06
349.000     4.10E+06
349.500     4.05E+06
350.000     5.00E+06
350.500     5.26E+06
351.000     4.69E+06
351.500     4.54E+06
352.000     4.87E+06
352.500     3.80E+06
353.000     4.77E+06
353.500     5.10E+06
354.000     5.28E+06
354.500     5.35E+06
355.000     5.33E+06
355.500     4.80E+06
356.000     5.01E+06
356.500     4.28E+06
357.000     3.53E+06
357.500     4.32E+06
358.000     3.42E+06
358.500     2.92E+06
359.000     4.08E+06
359.500     5.19E+06
360.000     5.49E+06
360.500     4.38E+06
361.000     3.99E+06
361.500     4.58E+06
362.000     3.94E+06
362.500     5.44E+06
363.000     4.87E+06
363.500     4.47E+06
364.000     5.46E+06
364.500     4.66E+06
365.000     4.74E+06
365.500     5.93E+06
366.000     6.27E+06
366.500     5.88E+06
367.000     5.72E+06
367.500     5.92E+06
368.000     5.17E+06
368.500     5.21E+06
369.000     5.62E+06
369.500     5.98E+06
370.000     6.36E+06
370.500     4.93E+06
371.000     5.26E+06
371.500     6.57E+06
372.000     4.36E+06
372.500     5.22E+06
373.000     5.29E+06
373.500     3.44E+06
374.000     4.99E+06
374.500     4.12E+06
375.000     4.00E+06
375.500     5.97E+06
376.000     4.95E+06
376.500     5.12E+06
377.000     5.42E+06
377.500     6.32E+06
378.000     6.85E+06
378.500     6.47E+06
379.000     5.34E+06
379.500     4.88E+06
380.000     5.07E+06
380.500     6.13E+06
381.000     6.13E+06
381.500     4.85E+06
382.000     4.30E+06
382.500     3.65E+06
383.000     3.38E+06
383.500     3.25E+06
384.000     3.58E+06
384.500     5.25E+06
385.000     5.20E+06
385.500     4.84E+06
386.000     4.14E+06
386.500     5.42E+06
387.000     4.50E+06
387.500     5.05E+06
388.000     4.66E+06
388.500     4.60E+06
389.000     4.96E+06
389.500     6.00E+06
390.000     6.02E+06
390.500     5.53E+06
391.000     6.50E+06
391.500     6.63E+06
392.000     5.58E+06
392.500     4.98E+06
393.000     2.77E+06
393.500     2.01E+06
394.000     4.09E+06
394.500     5.19E+06
395.000     6.32E+06
395.500     6.42E+06
396.000     5.56E+06
396.500     3.25E+06
397.000     2.43E+06
397.500     4.94E+06
398.000     6.92E+06
398.500     7.15E+06
399.000     7.72E+06
399.500     7.69E+06
400.000     7.98E+06
401.000     8.18E+06
402.000     8.60E+06
403.000     8.15E+06
404.000     8.01E+06
405.000     8.00E+06
406.000     7.85E+06
407.000     7.70E+06
408.000     8.00E+06
409.000     8.54E+06
410.000     7.44E+06
411.000     8.05E+06
412.000     8.61E+06
413.000     8.40E+06
414.000     8.48E+06
415.000     8.48E+06
416.000     8.60E+06
417.000     8.38E+06
418.000     8.22E+06
419.000     8.31E+06
420.000     8.26E+06
421.000     8.63E+06
422.000     8.19E+06
423.000     7.98E+06
424.000     8.44E+06
425.000     8.41E+06
426.000     8.16E+06
427.000     8.00E+06
428.000     7.79E+06
429.000     7.35E+06
430.000     6.42E+06
431.000     6.37E+06
432.000     8.20E+06
433.000     8.23E+06
434.000     7.64E+06
435.000     7.98E+06
436.000     8.96E+06
437.000     8.81E+06
438.000     8.01E+06
439.000     8.30E+06
440.000     8.54E+06
441.000     8.83E+06
442.000     9.46E+06
443.000     9.22E+06
444.000     9.40E+06
445.000     9.21E+06
446.000     8.76E+06
447.000     9.44E+06
448.000     9.60E+06
449.000     9.60E+06
450.000     9.85E+06
451.000     1.02E+07
452.000     9.83E+06
453.000     9.23E+06
454.000     9.61E+06
455.000     9.67E+06
456.000     9.89E+06
457.000     1.00E+07
458.000     9.71E+06
459.000     9.64E+06
460.000     9.67E+06
461.000     9.89E+06
462.000     9.94E+06
463.000     9.88E+06
464.000     9.69E+06
465.000     9.54E+06
466.000     9.61E+06
467.000     9.45E+06
468.000     9.55E+06
469.000     9.60E+06
470.000     9.29E+06
471.000     9.28E+06
472.000     9.78E+06
473.000     9.65E+06
474.000     9.68E+06
475.000     9.78E+06
476.000     9.52E+06
477.000     9.56E+06
478.000     9.81E+06
479.000     9.72E+06
480.000     9.72E+06
481.000     9.87E+06
482.000     9.90E+06
483.000     9.75E+06
484.000     9.53E+06
485.000     9.07E+06
486.000     7.92E+06
487.000     8.28E+06
488.000     9.09E+06
489.000     9.12E+06
490.000     9.58E+06
491.000     9.40E+06
492.000     8.87E+06
493.000     9.16E+06
494.000     9.25E+06
495.000     9.32E+06
496.000     9.38E+06
497.000     9.52E+06
498.000     9.07E+06
499.000     9.19E+06
500.000     8.93E+06
501.000     8.78E+06
502.000     8.68E+06
503.000     9.07E+06
504.000     8.94E+06
505.000     9.17E+06
506.000     9.47E+06
507.000     9.01E+06
508.000     8.70E+06
509.000     8.92E+06
510.000     8.86E+06
511.000     9.07E+06
512.000     9.16E+06
513.000     8.66E+06
514.000     8.60E+06
515.000     8.51E+06
516.000     8.49E+06
517.000     7.54E+06
518.000     7.92E+06
519.000     8.31E+06
520.000     8.62E+06
521.000     8.70E+06
522.000     8.72E+06
523.000     8.56E+06
524.000     8.88E+06
525.000     9.01E+06
526.000     8.61E+06
527.000     8.13E+06
528.000     8.61E+06
529.000     9.09E+06
530.000     8.96E+06
531.000     9.10E+06
532.000     8.79E+06
533.000     8.53E+06
534.000     8.78E+06
535.000     8.96E+06
536.000     9.03E+06
537.000     8.66E+06
538.000     8.81E+06
539.000     8.74E+06
540.000     8.38E+06
541.000     8.47E+06
542.000     8.74E+06
543.000     8.63E+06
544.000     8.80E+06
545.000     8.77E+06
546.000     8.83E+06
547.000     8.80E+06
548.000     8.69E+06
549.000     8.71E+06
550.000     8.81E+06
551.000     8.70E+06
552.000     8.76E+06
553.000     8.60E+06
554.000     8.81E+06
555.000     8.84E+06
556.000     8.72E+06
557.000     8.46E+06
558.000     8.41E+06
559.000     8.27E+06
560.000     8.38E+06
561.000     8.50E+06
562.000     8.45E+06
563.000     8.70E+06
564.000     8.48E+06
565.000     8.42E+06
566.000     8.31E+06
567.000     8.48E+06
568.000     8.46E+06
569.000     8.36E+06
570.000     8.34E+06
571.000     8.26E+06
572.000     8.52E+06
573.000     8.62E+06
574.000     8.61E+06
575.000     8.47E+06
576.000     8.39E+06
577.000     8.48E+06
578.000     8.32E+06
579.000     8.31E+06
580.000     8.41E+06
581.000     8.40E+06
582.000     8.52E+06
583.000     8.50E+06
584.000     8.55E+06
585.000     8.33E+06
586.000     8.16E+06
587.000     8.37E+06
588.000     8.29E+06
589.000     7.61E+06
590.000     7.94E+06
591.000     8.24E+06
592.000     8.23E+06
593.000     8.25E+06
594.000     8.24E+06
595.000     8.10E+06
596.000     8.23E+06
597.000     8.17E+06
598.000     8.10E+06
599.000     8.07E+06
600.000     8.03E+06
601.000     7.93E+06
602.000     7.87E+06
603.000     7.98E+06
604.000     8.11E+06
605.000     8.06E+06
606.000     8.01E+06
607.000     8.07E+06
608.000     7.96E+06
609.000     7.96E+06
610.000     7.89E+06
611.000     7.92E+06
612.000     7.89E+06
613.000     7.78E+06
614.000     7.66E+06
615.000     7.81E+06
616.000     7.55E+06
617.000     7.52E+06
618.000     7.80E+06
619.000     7.72E+06
620.000     7.77E+06
621.000     7.80E+06
622.000     7.72E+06
623.000     7.62E+06
624.000     7.48E+06
625.000     7.46E+06
626.000     7.57E+06
627.000     7.70E+06
628.000     7.69E+06
629.000     7.69E+06
630.000     7.53E+06
631.000     7.53E+06
632.000     7.42E+06
633.000     7.57E+06
634.000     7.45E+06
635.000     7.54E+06
636.000     7.41E+06
637.000     7.51E+06
638.000     7.55E+06
639.000     7.45E+06
640.000     7.36E+06
641.000     7.34E+06
642.000     7.29E+06
643.000     7.38E+06
644.000     7.34E+06
645.000     7.37E+06
646.000     7.26E+06
647.000     7.29E+06
648.000     7.36E+06
649.000     7.21E+06
650.000     7.07E+06
651.000     7.33E+06
652.000     7.25E+06
653.000     7.24E+06
654.000     7.14E+06
655.000     6.98E+06
656.000     6.11E+06
657.000     6.27E+06
658.000     6.98E+06
659.000     7.00E+06
660.000     7.01E+06
661.000     7.06E+06
662.000     7.11E+06
663.000     6.95E+06
664.000     6.99E+06
665.000     6.96E+06
666.000     6.95E+06
667.000     6.93E+06
668.000     6.92E+06
669.000     7.01E+06
670.000     6.98E+06
671.000     6.97E+06
672.000     6.90E+06
673.000     7.00E+06
674.000     6.97E+06
675.000     6.90E+06
676.000     6.94E+06
677.000     6.87E+06
678.000     6.88E+06
679.000     6.76E+06
680.000     6.82E+06
681.000     6.77E+06
682.000     6.76E+06
683.000     6.75E+06
684.000     6.71E+06
685.000     6.76E+06
686.000     6.73E+06
687.000     6.82E+06
688.000     6.74E+06
689.000     6.72E+06
690.000     6.68E+06
691.000     6.63E+06
692.000     6.57E+06
693.000     6.58E+06
694.000     6.59E+06
695.000     6.59E+06
696.000     6.65E+06
697.000     6.62E+06
698.000     6.53E+06
699.000     6.62E+06
700.000     6.53E+06
701.000     6.52E+06
702.000     6.48E+06
703.000     6.51E+06
704.000     6.58E+06
705.000     6.58E+06
706.000     6.52E+06
707.000     6.51E+06
708.000     6.52E+06
709.000     6.46E+06
710.000     6.49E+06
711.000     6.46E+06
712.000     6.40E+06
713.000     6.37E+06
714.000     6.39E+06
715.000     6.27E+06
716.000     6.30E+06
717.000     6.39E+06
718.000     6.29E+06
719.000     6.17E+06
720.000     6.29E+06
721.000     6.22E+06
722.000     6.22E+06
723.000     6.28E+06
724.000     6.22E+06
725.000     6.18E+06
726.000     6.19E+06
727.000     6.23E+06
728.000     6.12E+06
729.000     6.00E+06
730.000     6.14E+06
731.000     6.10E+06
732.000     6.11E+06
733.000     6.09E+06
734.000     6.16E+06
735.000     6.07E+06
736.000     6.04E+06
737.000     6.09E+06
738.000     5.99E+06
739.000     5.89E+06
740.000     5.97E+06
741.000     5.88E+06
742.000     5.85E+06
743.000     5.99E+06
744.000     5.95E+06
745.000     5.94E+06
746.000     5.96E+06
747.000     5.97E+06
748.000     5.96E+06
749.000     5.89E+06
750.000     5.89E+06
751.000     5.83E+06
752.000     5.85E+06
753.000     5.88E+06
754.000     5.89E+06
755.000     5.86E+06
756.000     5.85E+06
757.000     5.86E+06
758.000     5.79E+06
759.000     5.78E+06
760.000     5.78E+06
761.000     5.76E+06
762.000     5.66E+06
763.000     5.76E+06
764.000     5.73E+06
765.000     5.67E+06
766.000     5.44E+06
767.000     5.62E+06
768.000     5.65E+06
769.000     5.59E+06
770.000     5.59E+06
771.000     5.55E+06
772.000     5.54E+06
773.000     5.57E+06
774.000     5.54E+06
775.000     5.49E+06
776.000     5.56E+06
777.000     5.48E+06
778.000     5.45E+06
779.000     5.46E+06
780.000     5.42E+06
781.000     5.43E+06
782.000     5.46E+06
783.000     5.36E+06
784.000     5.39E+06
785.000     5.35E+06
786.000     5.42E+06
787.000     5.40E+06
788.000     5.37E+06
789.000     5.40E+06
790.000     5.39E+06
791.000     5.31E+06
792.000     5.26E+06
793.000     5.19E+06
794.000     5.13E+06
795.000     5.25E+06
796.000     5.27E+06
797.000     5.27E+06
798.000     5.26E+06
799.000     5.27E+06
800.000     5.22E+06
801.000     5.23E+06
802.000     5.21E+06
803.000     5.19E+06
804.000     5.18E+06
805.000     5.11E+06
806.000     5.18E+06
807.000     5.14E+06
808.000     5.13E+06
809.000     5.09E+06
810.000     5.10E+06
811.000     5.16E+06
812.000     5.16E+06
813.000     5.17E+06
814.000     5.14E+06
815.000     5.11E+06
816.000     5.10E+06
817.000     5.08E+06
818.000     4.98E+06
819.000     4.95E+06
820.000     4.92E+06
821.000     4.92E+06
822.000     4.92E+06
823.000     4.98E+06
824.000     4.96E+06
825.000     4.95E+06
826.000     4.98E+06
827.000     4.98E+06
828.000     4.95E+06
829.000     4.92E+06
830.000     4.90E+06
831.000     4.87E+06
832.000     4.89E+06
833.000     4.74E+06
834.000     4.76E+06
835.000     4.83E+06
836.000     4.86E+06
837.000     4.83E+06
838.000     4.76E+06
839.000     4.74E+06
840.000     4.82E+06
841.000     4.80E+06
842.000     4.75E+06
843.000     4.70E+06
844.000     4.66E+06
845.000     4.78E+06
846.000     4.75E+06
847.000     4.64E+06
848.000     4.64E+06
849.000     4.51E+06
850.000     4.31E+06
851.000     4.60E+06
852.000     4.55E+06
853.000     4.36E+06
854.000     3.78E+06
855.000     4.13E+06
856.000     4.52E+06
857.000     4.61E+06
858.000     4.58E+06
859.000     4.58E+06
860.000     4.58E+06
861.000     4.55E+06
862.000     4.62E+06
863.000     4.73E+06
864.000     4.49E+06
865.000     4.45E+06
866.000     4.00E+06
867.000     4.18E+06
868.000     4.54E+06
869.000     4.45E+06
870.000     4.58E+06
871.000     4.51E+06
872.000     4.50E+06
873.000     4.49E+06
874.000     4.43E+06
875.000     4.34E+06
876.000     4.39E+06
877.000     4.43E+06
878.000     4.49E+06
879.000     4.42E+06
880.000     4.32E+06
881.000     4.27E+06
882.000     4.36E+06
883.000     4.37E+06
884.000     4.35E+06
885.000     4.38E+06
886.000     4.22E+06
887.000     4.24E+06
888.000     4.33E+06
889.000     4.33E+06
890.000     4.34E+06
891.000     4.31E+06
892.000     4.24E+06
893.000     4.21E+06
894.000     4.22E+06
895.000     4.21E+06
896.000     4.27E+06
897.000     4.20E+06
898.000     4.22E+06
899.000     4.21E+06
900.000     4.11E+06
901.000     3.97E+06
902.000     4.01E+06
903.000     4.16E+06
904.000     4.21E+06
905.000     4.20E+06
906.000     4.10E+06
907.000     4.13E+06
908.000     4.06E+06
909.000     3.98E+06
910.000     4.05E+06
911.000     4.03E+06
912.000     4.04E+06
913.000     4.13E+06
914.000     4.08E+06
915.000     4.04E+06
916.000     4.06E+06
917.000     4.00E+06
918.000     4.02E+06
919.000     4.04E+06
920.000     3.99E+06
921.000     3.89E+06
922.000     3.87E+06
923.000     3.77E+06
924.000     3.89E+06
925.000     3.89E+06
926.000     3.84E+06
927.000     3.96E+06
928.000     3.96E+06
929.000     3.91E+06
930.000     3.93E+06
931.000     3.93E+06
932.000     3.91E+06
933.000     3.93E+06
934.000     3.92E+06
935.000     3.87E+06
936.000     3.85E+06
937.000     3.88E+06
938.000     3.88E+06
939.000     3.85E+06
940.000     3.80E+06
941.000     3.66E+06
942.000     3.74E+06
943.000     3.79E+06
944.000     3.74E+06
945.000     3.77E+06
946.000     3.79E+06
947.000     3.80E+06
948.000     3.80E+06
949.000     3.80E+06
950.000     3.77E+06
951.000     3.75E+06
952.000     3.75E+06
953.000     3.72E+06
954.000     3.60E+06
955.000     3.54E+06
956.000     3.69E+06
957.000     3.66E+06
958.000     3.70E+06
959.000     3.71E+06
960.000     3.65E+06
961.000     3.67E+06
962.000     3.64E+06
963.000     3.62E+06
964.000     3.62E+06
965.000     3.61E+06
966.000     3.58E+06
967.000     3.61E+06
968.000     3.60E+06
969.000     3.60E+06
970.000     3.60E+06
971.000     3.59E+06
972.000     3.60E+06
973.000     3.56E+06
974.000     3.51E+06
975.000     3.56E+06
976.000     3.54E+06
977.000     3.53E+06
978.000     3.52E+06
979.000     3.49E+06
980.000     3.51E+06
981.000     3.53E+06
982.000     3.52E+06
983.000     3.49E+06
984.000     3.49E+06
985.000     3.49E+06
986.000     3.46E+06
987.000     3.46E+06
988.000     3.46E+06
989.000     3.41E+06
990.000     3.42E+06
991.000     3.43E+06
992.000     3.44E+06
993.000     3.43E+06
994.000     3.43E+06
995.000     3.42E+06
996.000     3.41E+06
997.000     3.41E+06
998.000     3.40E+06
999.000     3.38E+06
1000.000    3.38E+06
1001.000    3.40E+06
1002.000    3.38E+06
1003.000    3.34E+06
1004.000    3.28E+06
1005.000    3.14E+06
1006.000    3.27E+06
1007.000    3.33E+06
1008.000    3.33E+06
1009.000    3.33E+06
1010.000    3.32E+06
1011.000    3.31E+06
1012.000    3.30E+06
1013.000    3.30E+06
1014.000    3.28E+06
1015.000    3.26E+06
1016.000    3.25E+06
1017.000    3.26E+06
1018.000    3.24E+06
1019.000    3.20E+06
1020.000    3.22E+06
1021.000    3.21E+06
1022.000    3.20E+06
1023.000    3.24E+06
1024.000    3.23E+06
1025.000    3.22E+06
1026.000    3.22E+06
1027.000    3.21E+06
1028.000    3.20E+06
1029.000    3.17E+06
1030.000    3.18E+06
1031.000    3.17E+06
1032.000    3.16E+06
1033.000    3.11E+06
1034.000    3.11E+06
1035.000    3.12E+06
1036.000    3.14E+06
1037.000    3.09E+06
1038.000    3.10E+06
1039.000    3.10E+06
1040.000    3.09E+06
1041.000    3.10E+06
1042.000    3.08E+06
1043.000    3.08E+06
1044.000    3.09E+06
1045.000    3.05E+06
1046.000    3.02E+06
1047.000    3.04E+06
1048.000    3.06E+06
1049.000    3.06E+06
1050.000    3.04E+06
1051.000    3.04E+06
1052.000    3.03E+06
1053.000    3.01E+06
1054.000    3.02E+06
1055.000    3.03E+06
1056.000    3.02E+06
1057.000    3.02E+06
1058.000    2.95E+06
1059.000    2.95E+06
1060.000    2.95E+06
1061.000    2.95E+06
1062.000    2.97E+06
1063.000    2.94E+06
1064.000    2.98E+06
1065.000    2.97E+06
1066.000    2.90E+06
1067.000    2.94E+06
1068.000    2.88E+06
1069.000    2.79E+06
1070.000    2.90E+06
1071.000    2.91E+06
1072.000    2.90E+06
1073.000    2.85E+06
1074.000    2.90E+06
1075.000    2.84E+06
1076.000    2.90E+06
1077.000    2.90E+06
1078.000    2.86E+06
1079.000    2.84E+06
1080.000    2.88E+06
1081.000    2.80E+06
1082.000    2.78E+06
1083.000    2.77E+06
1084.000    2.84E+06
1085.000    2.86E+06
1086.000    2.82E+06
1087.000    2.72E+06
1088.000    2.78E+06
1089.000    2.78E+06
1090.000    2.82E+06
1091.000    2.80E+06
1092.000    2.78E+06
1093.000    2.69E+06
1094.000    2.58E+06
1095.000    2.70E+06
1096.000    2.70E+06
1097.000    2.70E+06
1098.000    2.66E+06
1099.000    2.72E+06
1100.000    2.74E+06
1101.000    2.70E+06
1102.000    2.67E+06
1103.000    2.72E+06
1104.000    2.71E+06
1105.000    2.71E+06
1106.000    2.70E+06
1107.000    2.69E+06
1108.000    2.69E+06
1109.000    2.69E+06
1110.000    2.69E+06
1111.000    2.67E+06
1112.000    2.65E+06
1113.000    2.65E+06
1114.000    2.67E+06
1115.000    2.65E+06
1116.000    2.65E+06
1117.000    2.66E+06
1118.000    2.64E+06
1119.000    2.60E+06
1120.000    2.60E+06
1121.000    2.62E+06
1122.000    2.63E+06
1123.000    2.62E+06
1124.000    2.61E+06
1125.000    2.53E+06
1126.000    2.56E+06
1127.000    2.58E+06
1128.000    2.57E+06
1129.000    2.54E+06
1130.000    2.55E+06
1131.000    2.56E+06
1132.000    2.56E+06
1133.000    2.52E+06
1134.000    2.54E+06
1135.000    2.54E+06
1136.000    2.55E+06
1137.000    2.52E+06
1138.000    2.49E+06
1139.000    2.50E+06
1140.000    2.48E+06
1141.000    2.48E+06
1142.000    2.49E+06
1143.000    2.50E+06
1144.000    2.47E+06
1145.000    2.50E+06
1146.000    2.51E+06
1147.000    2.50E+06
1148.000    2.49E+06
1149.000    2.48E+06
1150.000    2.48E+06
1151.000    2.48E+06
1152.000    2.46E+06
1153.000    2.47E+06
1154.000    2.47E+06
1155.000    2.46E+06
1156.000    2.45E+06
1157.000    2.45E+06
1158.000    2.45E+06
1159.000    2.39E+06
1160.000    2.40E+06
1161.000    2.35E+06
1162.000    2.41E+06
1163.000    2.41E+06
1164.000    2.38E+06
1165.000    2.39E+06
1166.000    2.37E+06
1167.000    2.39E+06
1168.000    2.39E+06
1169.000    2.34E+06
1170.000    2.39E+06
1171.000    2.39E+06
1172.000    2.39E+06
1173.000    2.38E+06
1174.000    2.37E+06
1175.000    2.31E+06
1176.000    2.34E+06
1177.000    2.34E+06
1178.000    2.32E+06
1179.000    2.35E+06
1180.000    2.36E+06
1181.000    2.34E+06
1182.000    2.31E+06
1183.000    2.24E+06
1184.000    2.31E+06
1185.000    2.33E+06
1186.000    2.33E+06
1187.000    2.33E+06
1188.000    2.24E+06
1189.000    2.24E+06
1190.000    2.30E+06
1191.000    2.32E+06
1192.000    2.30E+06
1193.000    2.30E+06
1194.000    2.30E+06
1195.000    2.27E+06
1196.000    2.27E+06
1197.000    2.22E+06
1198.000    2.19E+06
1199.000    2.17E+06
1200.000    2.26E+06
1201.000    2.27E+06
1202.000    2.26E+06
1203.000    2.16E+06
1204.000    2.21E+06
1205.000    2.24E+06
1206.000    2.24E+06
1207.000    2.24E+06
1208.000    2.12E+06
1209.000    2.17E+06
1210.000    2.18E+06
1211.000    2.19E+06
1212.000    2.21E+06
1213.000    2.21E+06
1214.000    2.21E+06
1215.000    2.21E+06
1216.000    2.21E+06
1217.000    2.20E+06
1218.000    2.19E+06
1219.000    2.18E+06
1220.000    2.19E+06
1221.000    2.18E+06
1222.000    2.17E+06
1223.000    2.16E+06
1224.000    2.17E+06
1225.000    2.16E+06
1226.000    2.16E+06
1227.000    2.11E+06
1228.000    2.15E+06
1229.000    2.15E+06
1230.000    2.14E+06
1231.000    2.13E+06
1232.000    2.12E+06
1233.000    2.13E+06
1234.000    2.12E+06
1235.000    2.11E+06
1236.000    2.12E+06
1237.000    2.12E+06
1238.000    2.11E+06
1239.000    2.08E+06
1240.000    2.09E+06
1241.000    2.10E+06
1242.000    2.08E+06
1243.000    2.06E+06
1244.000    2.08E+06
1245.000    2.08E+06
1246.000    2.07E+06
1247.000    2.07E+06
1248.000    2.08E+06
1249.000    2.08E+06
1250.000    2.07E+06
1251.000    2.05E+06
1252.000    2.04E+06
1253.000    2.05E+06
1254.000    2.05E+06
1255.000    2.04E+06
1256.000    2.04E+06
1257.000    2.04E+06
1258.000    2.03E+06
1259.000    2.04E+06
1260.000    2.04E+06
1261.000    2.03E+06
1262.000    2.02E+06
1263.000    2.03E+06
1264.000    2.01E+06
1265.000    2.02E+06
1266.000    2.02E+06
1267.000    2.00E+06
1268.000    1.98E+06
1269.000    2.00E+06
1270.000    2.01E+06
1271.000    2.01E+06
1272.000    2.00E+06
1273.000    1.99E+06
1274.000    1.98E+06
1275.000    1.99E+06
1276.000    1.99E+06
1277.000    1.99E+06
1278.000    1.98E+06
1279.000    1.96E+06
1280.000    1.94E+06
1281.000    1.83E+06
1282.000    1.73E+06
1283.000    1.87E+06
1284.000    1.92E+06
1285.000    1.93E+06
1286.000    1.94E+06
1287.000    1.95E+06
1288.000    1.94E+06
1289.000    1.94E+06
1290.000    1.91E+06
1291.000    1.93E+06
1292.000    1.94E+06
1293.000    1.93E+06
1294.000    1.92E+06
1295.000    1.93E+06
1296.000    1.93E+06
1297.000    1.91E+06
1298.000    1.91E+06
1299.000    1.92E+06
1300.000    1.91E+06
1301.000    1.90E+06
1302.000    1.89E+06
1303.000    1.88E+06
1304.000    1.88E+06
1305.000    1.90E+06
1306.000    1.89E+06
1307.000    1.88E+06
1308.000    1.88E+06
1309.000    1.88E+06
1310.000    1.87E+06
1311.000    1.87E+06
1312.000    1.82E+06
1313.000    1.83E+06
1314.000    1.85E+06
1315.000    1.79E+06
1316.000    1.84E+06
1317.000    1.84E+06
1318.000    1.84E+06
1319.000    1.85E+06
1320.000    1.84E+06
1321.000    1.83E+06
1322.000    1.83E+06
1323.000    1.83E+06
1324.000    1.83E+06
1325.000    1.82E+06
1326.000    1.81E+06
1327.000    1.81E+06
1328.000    1.80E+06
1329.000    1.77E+06
1330.000    1.80E+06
1331.000    1.80E+06
1332.000    1.78E+06
1333.000    1.80E+06
1334.000    1.81E+06
1335.000    1.79E+06
1336.000    1.80E+06
1337.000    1.79E+06
1338.000    1.78E+06
1339.000    1.75E+06
1340.000    1.77E+06
1341.000    1.77E+06
1342.000    1.77E+06
1343.000    1.77E+06
1344.000    1.78E+06
1345.000    1.77E+06
1346.000    1.76E+06
1347.000    1.76E+06
1348.000    1.76E+06
1349.000    1.75E+06
1350.000    1.73E+06
1351.000    1.75E+06
1352.000    1.75E+06
1353.000    1.75E+06
1354.000    1.74E+06
1355.000    1.72E+06
1356.000    1.71E+06
1357.000    1.71E+06
1358.000    1.73E+06
1359.000    1.71E+06
1360.000    1.71E+06
1361.000    1.72E+06
1362.000    1.70E+06
1363.000    1.70E+06
1364.000    1.70E+06
1365.000    1.71E+06
1366.000    1.70E+06
1367.000    1.69E+06
1368.000    1.68E+06
1369.000    1.67E+06
1370.000    1.67E+06
1371.000    1.68E+06
1372.000    1.69E+06
1373.000    1.69E+06
1374.000    1.68E+06
1375.000    1.66E+06
1376.000    1.65E+06
1377.000    1.67E+06
1378.000    1.67E+06
1379.000    1.67E+06
1380.000    1.67E+06
1381.000    1.66E+06
1382.000    1.65E+06
1383.000    1.65E+06
1384.000    1.66E+06
1385.000    1.65E+06
1386.000    1.65E+06
1387.000    1.64E+06
1388.000    1.65E+06
1389.000    1.64E+06
1390.000    1.63E+06
1391.000    1.64E+06
1392.000    1.64E+06
1393.000    1.63E+06
1394.000    1.62E+06
1395.000    1.62E+06
1396.000    1.63E+06
1397.000    1.63E+06
1398.000    1.63E+06
1399.000    1.61E+06
1400.000    1.59E+06
1401.000    1.60E+06
1402.000    1.61E+06
1403.000    1.59E+06
1404.000    1.60E+06
1405.000    1.60E+06
1406.000    1.59E+06
1407.000    1.59E+06
1408.000    1.59E+06
1409.000    1.60E+06
1410.000    1.59E+06
1411.000    1.56E+06
1412.000    1.56E+06
1413.000    1.56E+06
1414.000    1.57E+06
1415.000    1.58E+06
1416.000    1.57E+06
1417.000    1.58E+06
1418.000    1.57E+06
1419.000    1.56E+06
1420.000    1.56E+06
1421.000    1.54E+06
1422.000    1.53E+06
1423.000    1.53E+06
1424.000    1.54E+06
1425.000    1.53E+06
1426.000    1.52E+06
1427.000    1.52E+06
1428.000    1.53E+06
1429.000    1.50E+06
1430.000    1.52E+06
1431.000    1.52E+06
1432.000    1.54E+06
1433.000    1.53E+06
1434.000    1.53E+06
1435.000    1.53E+06
1436.000    1.53E+06
1437.000    1.53E+06
1438.000    1.53E+06
1439.000    1.51E+06
1440.000    1.45E+06
1441.000    1.49E+06
1442.000    1.47E+06
1443.000    1.49E+06
1444.000    1.48E+06
1445.000    1.50E+06
1446.000    1.49E+06
1447.000    1.49E+06
1448.000    1.50E+06
1449.000    1.49E+06
1450.000    1.47E+06
1451.000    1.46E+06
1452.000    1.47E+06
1453.000    1.47E+06
1454.000    1.45E+06
1455.000    1.45E+06
1456.000    1.46E+06
1457.000    1.47E+06
1458.000    1.48E+06
1459.000    1.47E+06
1460.000    1.46E+06
1461.000    1.46E+06
1462.000    1.45E+06
1463.000    1.44E+06
1464.000    1.45E+06
1465.000    1.44E+06
1466.000    1.45E+06
1467.000    1.45E+06
1468.000    1.44E+06
1469.000    1.45E+06
1470.000    1.43E+06
1471.000    1.42E+06
1472.000    1.42E+06
1473.000    1.40E+06
1474.000    1.40E+06
1475.000    1.40E+06
1476.000    1.41E+06
1477.000    1.40E+06
1478.000    1.40E+06
1479.000    1.42E+06
1480.000    1.41E+06
1481.000    1.41E+06
1482.000    1.40E+06
1483.000    1.39E+06
1484.000    1.41E+06
1485.000    1.42E+06
1486.000    1.40E+06
1487.000    1.34E+06
1488.000    1.29E+06
1489.000    1.39E+06
1490.000    1.40E+06
1491.000    1.39E+06
1492.000    1.39E+06
1493.000    1.40E+06
1494.000    1.40E+06
1495.000    1.38E+06
1496.000    1.36E+06
1497.000    1.38E+06
1498.000    1.38E+06
1499.000    1.38E+06
1500.000    1.38E+06
1501.000    1.38E+06
1502.000    1.31E+06
1503.000    1.29E+06
1504.000    1.27E+06
1505.000    1.27E+06
1506.000    1.33E+06
1507.000    1.35E+06
1508.000    1.33E+06
1509.000    1.35E+06
1510.000    1.36E+06
1511.000    1.35E+06
1512.000    1.33E+06
1513.000    1.32E+06
1514.000    1.33E+06
1515.000    1.33E+06
1516.000    1.32E+06
1517.000    1.33E+06
1518.000    1.33E+06
1519.000    1.33E+06
1520.000    1.32E+06
1521.000    1.30E+06
1522.000    1.30E+06
1523.000    1.31E+06
1524.000    1.30E+06
1525.000    1.30E+06
1526.000    1.32E+06
1527.000    1.32E+06
1528.000    1.31E+06
1529.000    1.27E+06
1530.000    1.26E+06
1531.000    1.30E+06
1532.000    1.30E+06
1533.000    1.28E+06
1534.000    1.27E+06
1535.000    1.28E+06
1536.000    1.29E+06
1537.000    1.28E+06
1538.000    1.27E+06
1539.000    1.26E+06
1540.000    1.25E+06
1541.000    1.26E+06
1542.000    1.26E+06
1543.000    1.27E+06
1544.000    1.27E+06
1545.000    1.28E+06
1546.000    1.27E+06
1547.000    1.24E+06
1548.000    1.24E+06
1549.000    1.24E+06
1550.000    1.24E+06
1551.000    1.25E+06
1552.000    1.25E+06
1553.000    1.23E+06
1554.000    1.22E+06
1555.000    1.22E+06
1556.000    1.22E+06
1557.000    1.24E+06
1558.000    1.23E+06
1559.000    1.22E+06
1560.000    1.23E+06
1561.000    1.24E+06
1562.000    1.23E+06
1563.000    1.22E+06
1564.000    1.22E+06
1565.000    1.22E+06
1566.000    1.21E+06
1567.000    1.21E+06
1568.000    1.20E+06
1569.000    1.20E+06
1570.000    1.21E+06
1571.000    1.22E+06
1572.000    1.21E+06
1573.000    1.21E+06
1574.000    1.17E+06
1575.000    1.16E+06
1576.000    1.14E+06
1577.000    1.12E+06
1578.000    1.18E+06
1579.000    1.20E+06
1580.000    1.20E+06
1581.000    1.18E+06
1582.000    1.16E+06
1583.000    1.17E+06
1584.000    1.17E+06
1585.000    1.18E+06
1586.000    1.17E+06
1587.000    1.15E+06
1588.000    1.11E+06
1589.000    1.07E+06
1590.000    1.10E+06
1591.000    1.12E+06
1592.000    1.17E+06
1593.000    1.18E+06
1594.000    1.18E+06
1595.000    1.16E+06
1596.000    1.13E+06
1597.000    1.16E+06
1598.000    1.17E+06
1599.000    1.16E+06
1600.000    1.14E+06
1601.000    1.13E+06
1602.000    1.14E+06
1603.000    1.14E+06
1604.000    1.14E+06
1605.000    1.14E+06
1606.000    1.12E+06
1607.000    1.13E+06
1608.000    1.14E+06
1609.000    1.10E+06
1610.000    1.08E+06
1611.000    1.10E+06
1612.000    1.11E+06
1613.000    1.12E+06
1614.000    1.11E+06
1615.000    1.09E+06
1616.000    1.07E+06
1617.000    1.10E+06
1618.000    1.11E+06
1619.000    1.10E+06
1620.000    1.07E+06
1621.000    1.08E+06
1622.000    1.10E+06
1623.000    1.11E+06
1624.000    1.10E+06
1625.000    1.10E+06
1626.000    1.10E+06
1627.000    1.11E+06
1628.000    1.11E+06
1629.000    1.10E+06
1630.000    1.09E+06
1631.000    1.09E+06
1632.000    1.09E+06
1633.000    1.07E+06
1634.000    1.08E+06
1635.000    1.08E+06
1636.000    1.06E+06
1637.000    1.04E+06
1638.000    1.02E+06
1639.000    1.02E+06
1640.000    1.02E+06
1641.000    1.02E+06
1642.000    1.03E+06
1643.000    1.03E+06
1644.000    1.02E+06
1645.000    1.03E+06
1646.000    1.04E+06
1647.000    1.04E+06
1648.000    1.04E+06
1649.000    1.03E+06
1650.000    1.03E+06
1651.000    1.03E+06
1652.000    1.04E+06
1653.000    1.04E+06
1654.000    1.03E+06
1655.000    1.04E+06
1656.000    1.04E+06
1657.000    1.04E+06
1658.000    1.03E+06
1659.000    1.03E+06
1660.000    1.04E+06
1661.000    1.04E+06
1662.000    1.03E+06
1663.000    1.03E+06
1664.000    1.02E+06
1665.000    1.01E+06
1666.000    1.01E+06
1667.000    1.00E+06
1668.000    9.95E+05
1669.000    1.01E+06
1670.000    1.01E+06
1671.000    9.94E+05
1672.000    9.73E+05
1673.000    9.91E+05
1674.000    9.90E+05
1675.000    9.71E+05
1676.000    9.73E+05
1677.000    9.80E+05
1678.000    9.72E+05
1679.000    9.54E+05
1680.000    9.20E+05
1681.000    9.11E+05
1682.000    9.36E+05
1683.000    9.57E+05
1684.000    9.67E+05
1685.000    9.68E+05
1686.000    9.66E+05
1687.000    9.66E+05
1688.000    9.64E+05
1689.000    9.55E+05
1690.000    9.66E+05
1691.000    9.71E+05
1692.000    9.72E+05
1693.000    9.70E+05
1694.000    9.68E+05
1695.000    9.66E+05
1696.000    9.62E+05
1697.000    9.61E+05
1698.000    9.60E+05
1699.000    9.52E+05
1700.000    9.45E+05
1701.000    9.43E+05
1702.000    9.37E+05
1703.000    9.35E+05
1704.000    9.45E+05
1705.000    9.38E+05
1710.000    9.16E+05
1715.000    9.22E+05
1720.000    9.06E+05
1725.000    8.94E+05
1730.000    8.84E+05
1735.000    8.39E+05
1740.000    8.54E+05
1745.000    8.59E+05
1750.000    8.52E+05
1755.000    8.52E+05
1760.000    8.40E+05
1765.000    8.31E+05
1770.000    8.24E+05
1775.000    8.13E+05
1780.000    8.02E+05
1785.000    7.98E+05
1790.000    7.96E+05
1795.000    7.86E+05
1800.000    7.78E+05
1805.000    7.71E+05
1810.000    7.65E+05
1815.000    7.32E+05
1820.000    7.19E+05
1825.000    7.39E+05
1830.000    7.36E+05
1835.000    7.29E+05
1840.000    7.19E+05
1845.000    7.08E+05
1850.000    7.09E+05
1855.000    7.03E+05
1860.000    6.94E+05
1865.000    6.84E+05
1870.000    6.73E+05
1875.000    6.23E+05
1880.000    6.58E+05
1885.000    6.62E+05
1890.000    6.52E+05
1895.000    6.37E+05
1900.000    6.42E+05
1905.000    6.39E+05
1910.000    6.32E+05
1915.000    6.28E+05
1920.000    6.20E+05
1925.000    6.17E+05
1930.000    6.02E+05
1935.000    6.02E+05
1940.000    5.88E+05
1945.000    5.56E+05
1950.000    5.76E+05
1955.000    5.86E+05
1960.000    5.78E+05
1965.000    5.69E+05
1970.000    5.66E+05
1975.000    5.57E+05
1980.000    5.51E+05
1985.000    5.47E+05
1990.000    5.46E+05
1995.000    5.37E+05
2000.000    5.36E+05
2005.000    5.30E+05
2010.000    5.29E+05
2015.000    5.24E+05
2020.000    5.15E+05
2025.000    5.12E+05
2030.000    5.04E+05
2035.000    5.00E+05
2040.000    4.98E+05
2045.000    4.98E+05
2050.000    4.92E+05
2055.000    4.87E+05
2060.000    4.80E+05
2065.000    4.76E+05
2070.000    4.73E+05
2075.000    4.73E+05
2080.000    4.65E+05
2085.000    4.61E+05
2090.000    4.57E+05
2095.000    4.50E+05
2100.000    4.51E+05
2105.000    4.48E+05
2110.000    4.43E+05
2115.000    4.39E+05
2120.000    4.33E+05
2125.000    4.29E+05
2130.000    4.29E+05
2135.000    4.24E+05
2140.000    4.23E+05
2145.000    4.19E+05
2150.000    4.16E+05
2155.000    4.12E+05
2160.000    4.06E+05
2165.000    3.82E+05
2170.000    3.93E+05
2175.000    3.96E+05
2180.000    3.93E+05
2185.000    3.91E+05
2190.000    3.86E+05
2195.000    3.86E+05
2200.000    3.82E+05
2205.000    3.73E+05
2210.000    3.72E+05
2215.000    3.71E+05
2220.000    3.68E+05
2225.000    3.64E+05
2230.000    3.62E+05
2235.000    3.59E+05
2240.000    3.54E+05
2245.000    3.52E+05
2250.000    3.49E+05
2255.000    3.45E+05
2260.000    3.43E+05
2265.000    3.40E+05
2270.000    3.38E+05
2275.000    3.36E+05
2280.000    3.30E+05
2285.000    3.28E+05
2290.000    3.27E+05
2295.000    3.20E+05
2300.000    3.20E+05
2305.000    3.19E+05
2310.000    3.16E+05
2315.000    3.13E+05
2320.000    3.08E+05
2325.000    3.02E+05
2330.000    3.03E+05
2335.000    3.01E+05
2340.000    3.00E+05
2345.000    2.99E+05
2350.000    2.94E+05
2355.000    2.88E+05
2360.000    2.89E+05
2365.000    2.88E+05
2370.000    2.85E+05
2375.000    2.82E+05
2380.000    2.80E+05
2385.000    2.71E+05
2390.000    2.73E+05
2395.000    2.72E+05
2400.000    2.70E+05
2405.000    2.69E+05
2410.000    2.67E+05
2415.000    2.59E+05
2420.000    2.60E+05
2425.000    2.59E+05
2430.000    2.58E+05
2435.000    2.55E+05
2440.000    2.54E+05
2445.000    2.51E+05
2450.000    2.47E+05
2455.000    2.45E+05
2460.000    2.46E+05
2465.000    2.45E+05
2470.000    2.41E+05
2475.000    2.41E+05
2480.000    2.36E+05
2485.000    2.34E+05
2490.000    2.35E+05
2495.000    2.34E+05
2500.000    2.33E+05
2505.000    2.31E+05
2510.000    2.27E+05
2515.000    2.26E+05
2520.000    2.26E+05
2525.000    2.24E+05
2530.000    2.23E+05
2535.000    2.21E+05
2540.000    2.17E+05
2545.000    2.17E+05
2550.000    2.15E+05
2555.000    2.14E+05
2560.000    2.12E+05
2565.000    2.11E+05
2570.000    2.10E+05
2575.000    2.09E+05
2580.000    2.07E+05
2585.000    2.02E+05
2590.000    2.04E+05
2595.000    2.02E+05
2600.000    2.01E+05
2605.000    2.00E+05
2610.000    1.99E+05
2615.000    1.97E+05
2620.000    1.93E+05
2625.000    1.84E+05
2630.000    1.90E+05
2635.000    1.92E+05
2640.000    1.88E+05
2645.000    1.88E+05
2650.000    1.88E+05
2655.000    1.85E+05
2660.000    1.85E+05
2665.000    1.81E+05
2670.000    1.82E+05
2675.000    1.81E+05
2680.000    1.80E+05
2685.000    1.80E+05
2690.000    1.78E+05
2695.000    1.77E+05
2700.000    1.76E+05
2705.000    1.75E+05
2710.000    1.73E+05
2715.000    1.72E+05
2720.000    1.71E+05
2725.000    1.70E+05
2730.000    1.69E+05
2735.000    1.68E+05
2740.000    1.66E+05
2745.000    1.66E+05
2750.000    1.64E+05
2755.000    1.62E+05
2760.000    1.60E+05
2765.000    1.60E+05
2770.000    1.60E+05
2775.000    1.58E+05
2780.000    1.58E+05
2785.000    1.57E+05
2790.000    1.56E+05
2795.000    1.55E+05
2800.000    1.54E+05
2805.000    1.53E+05
2810.000    1.52E+05
2815.000    1.51E+05
2820.000    1.50E+05
2825.000    1.49E+05
2830.000    1.48E+05
2835.000    1.47E+05
2840.000    1.46E+05
2845.000    1.45E+05
2850.000    1.44E+05
2855.000    1.43E+05
2860.000    1.42E+05
2865.000    1.41E+05
2870.000    1.38E+05
2875.000    1.38E+05
2880.000    1.38E+05
2885.000    1.38E+05
2890.000    1.36E+05
2895.000    1.36E+05
2900.000    1.35E+05
2905.000    1.34E+05
2910.000    1.33E+05
2915.000    1.32E+05
2920.000    1.32E+05
2925.000    1.30E+05
2930.000    1.30E+05
2935.000    1.29E+05
2940.000    1.28E+05
2945.000    1.27E+05
2950.000    1.26E+05
2955.000    1.26E+05
2960.000    1.25E+05
2965.000    1.24E+05
2970.000    1.24E+05
2975.000    1.23E+05
2980.000    1.22E+05
2985.000    1.21E+05
2990.000    1.20E+05
2995.000    1.19E+05
3000.000    1.18E+05
3005.000    1.18E+05
3010.000    1.17E+05
3015.000    1.17E+05
3020.000    1.16E+05
3025.000    1.15E+05
3030.000    1.14E+05
3035.000    1.12E+05
3040.000    1.11E+05
3045.000    1.12E+05
3050.000    1.12E+05
3055.000    1.11E+05
3060.000    1.10E+05
3065.000    1.09E+05
3070.000    1.09E+05
3075.000    1.08E+05
3080.000    1.08E+05
3085.000    1.07E+05
3090.000    1.06E+05
3095.000    1.06E+05
3100.000    1.05E+05
3105.000    1.04E+05
3110.000    1.04E+05
3115.000    1.02E+05
3120.000    1.02E+05
3125.000    1.02E+05
3130.000    1.01E+05
3135.000    1.01E+05
3140.000    1.00E+05
3145.000    9.94E+04
3150.000    9.83E+04
3155.000    9.80E+04
3160.000    9.77E+04
3165.000    9.69E+04
3170.000    9.61E+04
3175.000    9.60E+04
3180.000    9.52E+04
3185.000    9.47E+04
3190.000    9.43E+04
3195.000    9.37E+04
3200.000    9.28E+04
3205.000    9.25E+04
3210.000    9.21E+04
3215.000    9.13E+04
3220.000    9.10E+04
3225.000    9.04E+04
3230.000    8.98E+04
3235.000    8.92E+04
3240.000    8.86E+04
3245.000    8.80E+04
3250.000    8.78E+04
3255.000    8.72E+04
3260.000    8.66E+04
3265.000    8.61E+04
3270.000    8.57E+04
3275.000    8.51E+04
3280.000    8.45E+04
3285.000    8.40E+04
3290.000    8.32E+04
3295.000    8.15E+04
3300.000    8.14E+04
3305.000    8.20E+04
3310.000    8.18E+04
3315.000    8.10E+04
3320.000    7.96E+04
3325.000    8.01E+04
3330.000    8.00E+04
3335.000    7.94E+04
3340.000    7.89E+04
3345.000    7.86E+04
3350.000    7.80E+04
3355.000    7.76E+04
3360.000    7.73E+04
3365.000    7.67E+04
3370.000    7.60E+04
3375.000    7.58E+04
3380.000    7.54E+04
3385.000    7.50E+04
3390.000    7.48E+04
3395.000    7.38E+04
3400.000    7.28E+04
3405.000    7.32E+04
3410.000    7.28E+04
3415.000    7.22E+04
3420.000    7.21E+04
3425.000    7.17E+04
3430.000    7.12E+04
3435.000    7.11E+04
3440.000    7.07E+04
3445.000    7.03E+04
3450.000    6.99E+04
3455.000    6.95E+04
3460.000    6.92E+04
3465.000    6.88E+04
3470.000    6.82E+04
3475.000    6.79E+04
3480.000    6.76E+04
3485.000    6.72E+04
3490.000    6.69E+04
3495.000    6.64E+04
3500.000    6.62E+04
3505.000    6.58E+04
3510.000    6.55E+04
3515.000    6.51E+04
3520.000    6.47E+04
3525.000    6.44E+04
3530.000    6.40E+04
3535.000    6.35E+04
3540.000    6.32E+04
3545.000    6.31E+04
3550.000    6.27E+04
3555.000    6.21E+04
3560.000    6.18E+04
3565.000    6.16E+04
3570.000    6.12E+04
3575.000    6.09E+04
3580.000    6.05E+04
3585.000    6.02E+04
3590.000    6.00E+04
3595.000    5.96E+04
3600.000    5.93E+04
3605.000    5.91E+04
3610.000    5.88E+04
3615.000    5.85E+04
3620.000    5.83E+04
3625.000    5.79E+04
3630.000    5.76E+04
3635.000    5.73E+04
3640.000    5.69E+04
3645.000    5.65E+04
3650.000    5.61E+04
3655.000    5.57E+04
3660.000    5.55E+04
3665.000    5.54E+04
3670.000    5.50E+04
3675.000    5.46E+04
3680.000    5.40E+04
3685.000    5.39E+04
3690.000    5.39E+04
3695.000    5.31E+04
3700.000    5.24E+04
3705.000    5.25E+04
3710.000    5.23E+04
3715.000    5.22E+04
3720.000    5.22E+04
3725.000    5.20E+04
3730.000    5.17E+04
3735.000    5.09E+04
3740.000    4.97E+04
3745.000    4.96E+04
3750.000    5.01E+04
3755.000    5.00E+04
3760.000    4.99E+04
3765.000    4.98E+04
3770.000    4.96E+04
3775.000    4.92E+04
3780.000    4.90E+04
3785.000    4.88E+04
3790.000    4.85E+04
3795.000    4.82E+04
3800.000    4.80E+04
3805.000    4.79E+04
3810.000    4.76E+04
3815.000    4.74E+04
3820.000    4.72E+04
3825.000    4.71E+04
3830.000    4.68E+04
3835.000    4.65E+04
3840.000    4.63E+04
3845.000    4.62E+04
3850.000    4.60E+04
3855.000    4.57E+04
3860.000    4.53E+04
3865.000    4.50E+04
3870.000    4.49E+04
3875.000    4.48E+04
3880.000    4.45E+04
3885.000    4.41E+04
3890.000    4.40E+04
3895.000    4.38E+04
3900.000    4.36E+04
3905.000    4.35E+04
3910.000    4.33E+04
3915.000    4.31E+04
3920.000    4.28E+04
3925.000    4.27E+04
3930.000    4.24E+04
3935.000    4.22E+04
3940.000    4.20E+04
3945.000    4.18E+04
3950.000    4.14E+04
3955.000    4.11E+04
3960.000    4.10E+04
3965.000    4.09E+04
3970.000    4.08E+04
3975.000    4.05E+04
3980.000    4.03E+04
3985.000    4.00E+04
3990.000    3.97E+04
3995.000    3.95E+04
4000.000    3.84E+04
4020.000    3.69E+04
4040.000    3.61E+04
4060.000    3.54E+04
4080.000    3.47E+04
4100.000    3.40E+04
4120.000    3.34E+04
4140.000    3.27E+04
4160.000    3.21E+04
4180.000    3.14E+04
4200.000    3.08E+04
4220.000    3.02E+04
4240.000    2.96E+04
4260.000    2.91E+04
4280.000    2.85E+04
4300.000    2.80E+04
4320.000    2.75E+04
4340.000    2.70E+04
4360.000    2.64E+04
4380.000    2.60E+04
4400.000    2.55E+04
4420.000    2.50E+04
4440.000    2.46E+04
4460.000    2.41E+04
4480.000    2.37E+04
4500.000    2.32E+04
4520.000    2.28E+04
4540.000    2.24E+04
4560.000    2.20E+04
4580.000    2.16E+04
4600.000    2.12E+04
4620.000    2.09E+04
4640.000    2.05E+04
4660.000    2.01E+04
4680.000    1.98E+04
4700.000    1.94E+04
4720.000    1.91E+04
4740.000    1.88E+04
4760.000    1.85E+04
4780.000    1.82E+04
4800.000    1.78E+04
4820.000    1.75E+04
4840.000    1.72E+04
4860.000    1.70E+04
4880.000    1.67E+04
4900.000    1.64E+04
4920.000    1.61E+04
4940.000    1.59E+04
4960.000    1.56E+04
4980.000    1.54E+04
5000.000    1.51E+04
5050.000    1.48E+04
5100.000    1.42E+04
5150.000    1.37E+04
5200.000    1.32E+04
5250.000    1.27E+04
5300.000    1.23E+04
5350.000    1.18E+04
5400.000    1.14E+04
5450.000    1.10E+04
5500.000    1.06E+04
5550.000    1.03E+04
5600.000    9.91E+03
5650.000    9.58E+03
5700.000    9.25E+03
5750.000    8.95E+03
5800.000    8.65E+03
5850.000    8.37E+03
5900.000    8.10E+03
5950.000    7.84E+03
6000.000    7.59E+03
6050.000    7.35E+03
6100.000    7.12E+03
6150.000    6.89E+03
6200.000    6.68E+03
6250.000    6.48E+03
6300.000    6.28E+03
6350.000    6.09E+03
6400.000    5.91E+03
6450.000    5.74E+03
6500.000    5.57E+03
6550.000    5.40E+03
6600.000    5.24E+03
6650.000    5.10E+03
6700.000    4.95E+03
6750.000    4.81E+03
6800.000    4.68E+03
6850.000    4.54E+03
6900.000    4.42E+03
6950.000    4.30E+03
7000.000    4.18E+03
7050.000    4.06E+03
7100.000    3.96E+03
7150.000    3.85E+03
7200.000    3.75E+03
7250.000    3.65E+03
7300.000    3.55E+03
7350.000    3.46E+03
7400.000    3.37E+03
7450.000    3.28E+03
7500.000    3.20E+03
7550.000    3.12E+03
7600.000    3.04E+03
7650.000    2.96E+03
7700.000    2.89E+03
7750.000    2.82E+03
7800.000    2.75E+03
7850.000    2.68E+03
7900.000    2.62E+03
7950.000    2.55E+03
8000.000    2.49E+03
8050.000    2.43E+03
8100.000    2.38E+03
8150.000    2.32E+03
8200.000    2.26E+03
8250.000    2.21E+03
8300.000    2.16E+03
8350.000    2.11E+03
8400.000    2.06E+03
8450.000    2.02E+03
8500.000    1.97E+03
8550.000    1.93E+03
8600.000    1.88E+03
8650.000    1.84E+03
8700.000    1.80E+03
8750.000    1.76E+03
8800.000    1.72E+03
8850.000    1.69E+03
8900.000    1.65E+03
8950.000    1.61E+03
9000.000    1.58E+03
9050.000    1.55E+03
9100.000    1.51E+03
9150.000    1.48E+03
9200.000    1.45E+03
9250.000    1.42E+03
9300.000    1.39E+03
9350.000    1.36E+03
9400.000    1.34E+03
9450.000    1.31E+03
9500.000    1.28E+03
9550.000    1.26E+03
9600.000    1.23E+03
9650.000    1.21E+03
9700.000    1.18E+03
9750.000    1.16E+03
9800.000    1.14E+03
9850.000    1.11E+03
9900.000    1.09E+03
9950.000    1.07E+03
10000.000    1.05E+03
11000.000    7.12E+02
12000.000    5.02E+02
13000.000    3.63E+02
14000.000    2.70E+02
15000.000    2.04E+02
16000.000    1.57E+02
17000.000    1.23E+02
18000.000    9.80E+01
19000.000    7.88E+01
20000.000    6.40E+01
25000.000    2.64E+01
30000.000    1.28E+01
35000.000    6.88E+00
40000.000    4.05E+00
50000.000    1.67E+00
60000.000    8.06E-01
80000.000    2.56E-01
100000.000    1.05E-01
120000.000    5.10E-02
150000.000    2.09E-02
200000.000    6.66E-03
250000.000    2.74E-03
300000.000    1.29E-03
400000.000    4.40E-04
1000000.000    1.47E-05
